key_resp_1.keys, key_resp_1.rt, response.keys, response.corr, response.rt, trials.thisRepN, trials.thisTrialN, trials.thisN, trials.thisIndex, trials.ran, trials.order, words, number_of_letters, corrAns, participant, session, date, expName, psychopyVersion, frameRate
space, 9.248999999999999, left, 1, 5.730999999999998, 1, 0, 80, 47, 1, 79, compane, 7, left, 10, 001, 2022-03-29_13h53.30.112, lexical_decision_task, 3.0.0b12, 60
undefined, undefined, left, 0, 1.245000000000001, 1, 0, 80, 28, 1, 79, could, 5, right, 10, 001, 2022-03-29_13h53.30.112, lexical_decision_task, 3.0.0b12, 60
undefined, undefined, left, 1, 1.8800000000000026, 1, 0, 80, 9, 1, 79, ous, 3, left, 10, 001, 2022-03-29_13h53.30.112, lexical_decision_task, 3.0.0b12, 60
undefined, undefined, right, 1, 4.961000000000002, 1, 0, 80, 6, 1, 79, for, 3, right, 10, 001, 2022-03-29_13h53.30.112, lexical_decision_task, 3.0.0b12, 60
undefined, undefined, right, 1, 1.6449999999999996, 1, 0, 80, 20, 1, 79, their, 5, right, 10, 001, 2022-03-29_13h53.30.112, lexical_decision_task, 3.0.0b12, 60
undefined, undefined, right, 1, 176.46, 1, 0, 80, 64, 1, 79, political, 9, right, 10, 001, 2022-03-29_13h53.30.112, lexical_decision_task, 3.0.0b12, 60
undefined, undefined, right, 0, 1.1119999999999948, 1, 0, 80, 15, 1, 79, ptay, 4, left, 10, 001, 2022-03-29_13h53.30.112, lexical_decision_task, 3.0.0b12, 60
undefined, undefined, right, 1, 1.8799999999999955, 1, 0, 80, 0, 1, 79, way, 3, right, 10, 001, 2022-03-29_13h53.30.112, lexical_decision_task, 3.0.0b12, 60
undefined, undefined, left, 1, 2.195999999999998, 1, 0, 80, 25, 1, 79, thenk, 5, left, 10, 001, 2022-03-29_13h53.30.112, lexical_decision_task, 3.0.0b12, 60
undefined, undefined, right, 1, 1.6639999999999873, 1, 0, 80, 24, 1, 79, think, 5, right, 10, 001, 2022-03-29_13h53.30.112, lexical_decision_task, 3.0.0b12, 60
undefined, undefined, left, 1, 2.180000000000007, 1, 0, 80, 69, 1, 79, incluting, 9, left, 10, 001, 2022-03-29_13h53.30.112, lexical_decision_task, 3.0.0b12, 60
undefined, undefined, left, 1, 1.8970000000000198, 1, 0, 80, 1, 1, 79, woy, 3, left, 10, 001, 2022-03-29_13h53.30.112, lexical_decision_task, 3.0.0b12, 60
undefined, undefined, right, 1, 2.548000000000002, 1, 0, 80, 54, 1, 79, question, 8, right, 10, 001, 2022-03-29_13h53.30.112, lexical_decision_task, 3.0.0b12, 60
undefined, undefined, right, 1, 1.747000000000014, 1, 0, 80, 70, 1, 79, everything, 10, right, 10, 001, 2022-03-29_13h53.30.112, lexical_decision_task, 3.0.0b12, 60
undefined, undefined, right, 1, 1.6479999999999961, 1, 0, 80, 2, 1, 79, and, 3, right, 10, 001, 2022-03-29_13h53.30.112, lexical_decision_task, 3.0.0b12, 60
undefined, undefined, left, 1, 1.9799999999999898, 1, 0, 80, 71, 1, 79, eferything, 10, left, 10, 001, 2022-03-29_13h53.30.112, lexical_decision_task, 3.0.0b12, 60
undefined, undefined, right, 1, 1.8969999999999914, 1, 0, 80, 36, 1, 79, decade, 6, right, 10, 001, 2022-03-29_13h53.30.112, lexical_decision_task, 3.0.0b12, 60
undefined, undefined, left, 1, 1.8969999999999914, 1, 0, 80, 35, 1, 79, fector, 6, left, 10, 001, 2022-03-29_13h53.30.112, lexical_decision_task, 3.0.0b12, 60
undefined, undefined, left, 1, 2.046999999999997, 1, 0, 80, 55, 1, 79, quesdion, 8, left, 10, 001, 2022-03-29_13h53.30.112, lexical_decision_task, 3.0.0b12, 60
undefined, undefined, left, 1, 2.5960000000000036, 1, 0, 80, 75, 1, 79, especialty, 10, left, 10, 001, 2022-03-29_13h53.30.112, lexical_decision_task, 3.0.0b12, 60
undefined, undefined, left, 1, 2.031000000000006, 1, 0, 80, 61, 1, 79, bifferent, 9, left, 10, 001, 2022-03-29_13h53.30.112, lexical_decision_task, 3.0.0b12, 60
undefined, undefined, right, 1, 1.8300000000000125, 1, 0, 80, 66, 1, 79, community, 9, right, 10, 001, 2022-03-29_13h53.30.112, lexical_decision_task, 3.0.0b12, 60
undefined, undefined, left, 1, 1.7139999999999986, 1, 0, 80, 27, 1, 79, whicb, 5, left, 10, 001, 2022-03-29_13h53.30.112, lexical_decision_task, 3.0.0b12, 60
undefined, undefined, left, 1, 1.8149999999999977, 1, 0, 80, 5, 1, 79, neu, 3, left, 10, 001, 2022-03-29_13h53.30.112, lexical_decision_task, 3.0.0b12, 60
undefined, undefined, right, 1, 1.6809999999999832, 1, 0, 80, 60, 1, 79, different, 9, right, 10, 001, 2022-03-29_13h53.30.112, lexical_decision_task, 3.0.0b12, 60
undefined, undefined, left, 1, 2.296999999999997, 1, 0, 80, 39, 1, 79, sistem, 6, left, 10, 001, 2022-03-29_13h53.30.112, lexical_decision_task, 3.0.0b12, 60
undefined, undefined, right, 1, 1.9470000000000027, 1, 0, 80, 62, 1, 79, important, 9, right, 10, 001, 2022-03-29_13h53.30.112, lexical_decision_task, 3.0.0b12, 60
undefined, undefined, right, 1, 1.6970000000000027, 1, 0, 80, 40, 1, 79, program, 7, right, 10, 001, 2022-03-29_13h53.30.112, lexical_decision_task, 3.0.0b12, 60
undefined, undefined, right, 1, 2.6629999999999825, 1, 0, 80, 76, 1, 79, technology, 10, right, 10, 001, 2022-03-29_13h53.30.112, lexical_decision_task, 3.0.0b12, 60
undefined, undefined, right, 1, 1.7309999999999945, 1, 0, 80, 18, 1, 79, line, 4, right, 10, 001, 2022-03-29_13h53.30.112, lexical_decision_task, 3.0.0b12, 60
undefined, undefined, left, 1, 2.01400000000001, 1, 0, 80, 77, 1, 79, tochnology, 10, left, 10, 001, 2022-03-29_13h53.30.112, lexical_decision_task, 3.0.0b12, 60
undefined, undefined, left, 1, 2.129999999999967, 1, 0, 80, 79, 1, 79, bopulation, 10, left, 10, 001, 2022-03-29_13h53.30.112, lexical_decision_task, 3.0.0b12, 60
undefined, undefined, left, 1, 1.7299999999999613, 1, 0, 80, 17, 1, 79, heur, 4, left, 10, 001, 2022-03-29_13h53.30.112, lexical_decision_task, 3.0.0b12, 60
undefined, undefined, left, 1, 1.8139999999999645, 1, 0, 80, 41, 1, 79, pregram, 7, left, 10, 001, 2022-03-29_13h53.30.112, lexical_decision_task, 3.0.0b12, 60
undefined, undefined, left, 1, 1.8310000000000173, 1, 0, 80, 37, 1, 79, secade, 6, left, 10, 001, 2022-03-29_13h53.30.112, lexical_decision_task, 3.0.0b12, 60
undefined, undefined, left, 0, 1.6639999999999873, 1, 0, 80, 12, 1, 79, much, 4, right, 10, 001, 2022-03-29_13h53.30.112, lexical_decision_task, 3.0.0b12, 60
undefined, undefined, right, 1, 1.8139999999999645, 1, 0, 80, 16, 1, 79, hour, 4, right, 10, 001, 2022-03-29_13h53.30.112, lexical_decision_task, 3.0.0b12, 60
undefined, undefined, right, 1, 1.7469999999999573, 1, 0, 80, 30, 1, 79, should, 6, right, 10, 001, 2022-03-29_13h53.30.112, lexical_decision_task, 3.0.0b12, 60
undefined, undefined, left, 1, 1.84699999999998, 1, 0, 80, 43, 1, 79, countey, 7, left, 10, 001, 2022-03-29_13h53.30.112, lexical_decision_task, 3.0.0b12, 60
undefined, undefined, right, 1, 1.7309999999999945, 1, 0, 80, 52, 1, 79, remember, 8, right, 10, 001, 2022-03-29_13h53.30.112, lexical_decision_task, 3.0.0b12, 60
undefined, undefined, right, 1, 1.7139999999999986, 1, 0, 80, 78, 1, 79, population, 10, right, 10, 001, 2022-03-29_13h53.30.112, lexical_decision_task, 3.0.0b12, 60
undefined, undefined, right, 1, 1.579999999999984, 1, 0, 80, 14, 1, 79, play, 4, right, 10, 001, 2022-03-29_13h53.30.112, lexical_decision_task, 3.0.0b12, 60
undefined, undefined, left, 1, 2.1970000000000027, 1, 0, 80, 73, 1, 79, exberience, 10, left, 10, 001, 2022-03-29_13h53.30.112, lexical_decision_task, 3.0.0b12, 60
undefined, undefined, left, 1, 1.8809999999999718, 1, 0, 80, 13, 1, 79, mech, 4, left, 10, 001, 2022-03-29_13h53.30.112, lexical_decision_task, 3.0.0b12, 60
undefined, undefined, right, 1, 1.6129999999999995, 1, 0, 80, 4, 1, 79, new, 3, right, 10, 001, 2022-03-29_13h53.30.112, lexical_decision_task, 3.0.0b12, 60
undefined, undefined, right, 1, 1.59699999999998, 1, 0, 80, 22, 1, 79, about, 5, right, 10, 001, 2022-03-29_13h53.30.112, lexical_decision_task, 3.0.0b12, 60
undefined, undefined, left, 1, 1.6800000000000068, 1, 0, 80, 3, 1, 79, anf, 3, left, 10, 001, 2022-03-29_13h53.30.112, lexical_decision_task, 3.0.0b12, 60
undefined, undefined, right, 1, 2.031000000000006, 1, 0, 80, 56, 1, 79, anything, 8, right, 10, 001, 2022-03-29_13h53.30.112, lexical_decision_task, 3.0.0b12, 60
undefined, undefined, left, 1, 1.829999999999984, 1, 0, 80, 23, 1, 79, aboot, 5, left, 10, 001, 2022-03-29_13h53.30.112, lexical_decision_task, 3.0.0b12, 60
undefined, undefined, left, 1, 1.9810000000000514, 1, 0, 80, 53, 1, 79, rememper, 8, left, 10, 001, 2022-03-29_13h53.30.112, lexical_decision_task, 3.0.0b12, 60
undefined, undefined, left, 1, 1.8799999999999955, 1, 0, 80, 67, 1, 79, compunity, 9, left, 10, 001, 2022-03-29_13h53.30.112, lexical_decision_task, 3.0.0b12, 60
undefined, undefined, right, 1, 1.68100000000004, 1, 0, 80, 32, 1, 79, become, 6, right, 10, 001, 2022-03-29_13h53.30.112, lexical_decision_task, 3.0.0b12, 60
undefined, undefined, left, 1, 1.7309999999999945, 1, 0, 80, 59, 1, 79, pesearch, 8, left, 10, 001, 2022-03-29_13h53.30.112, lexical_decision_task, 3.0.0b12, 60
undefined, undefined, right, 1, 1.6469999999999914, 1, 0, 80, 26, 1, 79, which, 5, right, 10, 001, 2022-03-29_13h53.30.112, lexical_decision_task, 3.0.0b12, 60
undefined, undefined, left, 1, 1.7800000000000296, 1, 0, 80, 45, 1, 79, bedween, 7, left, 10, 001, 2022-03-29_13h53.30.112, lexical_decision_task, 3.0.0b12, 60
undefined, undefined, right, 1, 1.7150000000000318, 1, 0, 80, 68, 1, 79, including, 9, right, 10, 001, 2022-03-29_13h53.30.112, lexical_decision_task, 3.0.0b12, 60
undefined, undefined, right, 1, 1.7800000000000296, 1, 0, 80, 44, 1, 79, between, 7, right, 10, 001, 2022-03-29_13h53.30.112, lexical_decision_task, 3.0.0b12, 60
undefined, undefined, right, 0, 1.9139999999999873, 1, 0, 80, 57, 1, 79, anythink, 8, left, 10, 001, 2022-03-29_13h53.30.112, lexical_decision_task, 3.0.0b12, 60
undefined, undefined, right, 1, 1.863999999999976, 1, 0, 80, 8, 1, 79, out, 3, right, 10, 001, 2022-03-29_13h53.30.112, lexical_decision_task, 3.0.0b12, 60
undefined, undefined, right, 1, 1.68100000000004, 1, 0, 80, 34, 1, 79, factor, 6, right, 10, 001, 2022-03-29_13h53.30.112, lexical_decision_task, 3.0.0b12, 60
undefined, undefined, left, 1, 1.8629999999999995, 1, 0, 80, 21, 1, 79, theyr, 5, left, 10, 001, 2022-03-29_13h53.30.112, lexical_decision_task, 3.0.0b12, 60
undefined, undefined, right, 1, 1.7309999999999945, 1, 0, 80, 50, 1, 79, business, 8, right, 10, 001, 2022-03-29_13h53.30.112, lexical_decision_task, 3.0.0b12, 60
undefined, undefined, left, 1, 1.863999999999976, 1, 0, 80, 63, 1, 79, importent, 9, left, 10, 001, 2022-03-29_13h53.30.112, lexical_decision_task, 3.0.0b12, 60
undefined, undefined, right, 1, 1.7139999999999986, 1, 0, 80, 10, 1, 79, want, 4, right, 10, 001, 2022-03-29_13h53.30.112, lexical_decision_task, 3.0.0b12, 60
undefined, undefined, left, 1, 1.830000000000041, 1, 0, 80, 7, 1, 79, fot, 3, left, 10, 001, 2022-03-29_13h53.30.112, lexical_decision_task, 3.0.0b12, 60
undefined, undefined, right, 1, 1.6639999999999873, 1, 0, 80, 72, 1, 79, experience, 10, right, 10, 001, 2022-03-29_13h53.30.112, lexical_decision_task, 3.0.0b12, 60
undefined, undefined, right, 1, 1.8139999999999645, 1, 0, 80, 74, 1, 79, especially, 10, right, 10, 001, 2022-03-29_13h53.30.112, lexical_decision_task, 3.0.0b12, 60
undefined, undefined, left, 1, 1.6809999999999832, 1, 0, 80, 11, 1, 79, wunt, 4, left, 10, 001, 2022-03-29_13h53.30.112, lexical_decision_task, 3.0.0b12, 60
undefined, undefined, right, 1, 1.6470000000000482, 1, 0, 80, 38, 1, 79, system, 6, right, 10, 001, 2022-03-29_13h53.30.112, lexical_decision_task, 3.0.0b12, 60
undefined, undefined, left, 1, 1.76400000000001, 1, 0, 80, 29, 1, 79, courd, 5, left, 10, 001, 2022-03-29_13h53.30.112, lexical_decision_task, 3.0.0b12, 60
undefined, undefined, right, 0, 1.5980000000000132, 1, 0, 80, 33, 1, 79, becone, 6, left, 10, 001, 2022-03-29_13h53.30.112, lexical_decision_task, 3.0.0b12, 60
undefined, undefined, right, 1, 1.664000000000044, 1, 0, 80, 46, 1, 79, company, 7, right, 10, 001, 2022-03-29_13h53.30.112, lexical_decision_task, 3.0.0b12, 60
undefined, undefined, right, 1, 1.7309999999999945, 1, 0, 80, 48, 1, 79, believe, 7, right, 10, 001, 2022-03-29_13h53.30.112, lexical_decision_task, 3.0.0b12, 60
undefined, undefined, left, 1, 1.7139999999999986, 1, 0, 80, 19, 1, 79, lipe, 4, left, 10, 001, 2022-03-29_13h53.30.112, lexical_decision_task, 3.0.0b12, 60
undefined, undefined, left, 1, 1.8969999999999914, 1, 0, 80, 51, 1, 79, bussness, 8, left, 10, 001, 2022-03-29_13h53.30.112, lexical_decision_task, 3.0.0b12, 60
undefined, undefined, left, 1, 1.8129999999999882, 1, 0, 80, 49, 1, 79, beliefe, 7, left, 10, 001, 2022-03-29_13h53.30.112, lexical_decision_task, 3.0.0b12, 60
undefined, undefined, right, 1, 1.7469999999999573, 1, 0, 80, 42, 1, 79, country, 7, right, 10, 001, 2022-03-29_13h53.30.112, lexical_decision_task, 3.0.0b12, 60
undefined, undefined, right, 1, 1.7129999999999654, 1, 0, 80, 58, 1, 79, research, 8, right, 10, 001, 2022-03-29_13h53.30.112, lexical_decision_task, 3.0.0b12, 60
undefined, undefined, left, 1, 1.7800000000000296, 1, 0, 80, 31, 1, 79, shoule, 6, left, 10, 001, 2022-03-29_13h53.30.112, lexical_decision_task, 3.0.0b12, 60
undefined, undefined, right, 0, 1.6480000000000246, 1, 0, 80, 65, 1, 79, pofitical, 9, left, 10, 001, 2022-03-29_13h53.30.112, lexical_decision_task, 3.0.0b12, 60
