key_resp_1.keys, key_resp_1.rt, response.keys, response.corr, response.rt, trials.thisRepN, trials.thisTrialN, trials.thisN, trials.thisIndex, trials.ran, trials.order, words, number_of_letters, corrAns, participant, session, date, expName, psychopyVersion, frameRate
space, 7.797000000000001, right, 1, 2.641, 1, 0, 80, 68, 1, 79, including, 9, right, cansel, 001, 2020-11-27_16h33.12.092, lexical_decision_task, 3.0.0b12, 60
undefined, undefined, right, 1, 2.4949999999999974, 1, 0, 80, 32, 1, 79, become, 6, right, cansel, 001, 2020-11-27_16h33.12.092, lexical_decision_task, 3.0.0b12, 60
undefined, undefined, right, 1, 1.779, 1, 0, 80, 66, 1, 79, community, 9, right, cansel, 001, 2020-11-27_16h33.12.092, lexical_decision_task, 3.0.0b12, 60
undefined, undefined, right, 1, 1.9130000000000003, 1, 0, 80, 76, 1, 79, technology, 10, right, cansel, 001, 2020-11-27_16h33.12.092, lexical_decision_task, 3.0.0b12, 60
undefined, undefined, left, 1, 2.272000000000002, 1, 0, 80, 35, 1, 79, fector, 6, left, cansel, 001, 2020-11-27_16h33.12.092, lexical_decision_task, 3.0.0b12, 60
undefined, undefined, right, 1, 2.178000000000001, 1, 0, 80, 70, 1, 79, everything, 10, right, cansel, 001, 2020-11-27_16h33.12.092, lexical_decision_task, 3.0.0b12, 60
undefined, undefined, left, 1, 2.747, 1, 0, 80, 59, 1, 79, pesearch, 8, left, cansel, 001, 2020-11-27_16h33.12.092, lexical_decision_task, 3.0.0b12, 60
undefined, undefined, right, 1, 2.0809999999999995, 1, 0, 80, 48, 1, 79, believe, 7, right, cansel, 001, 2020-11-27_16h33.12.092, lexical_decision_task, 3.0.0b12, 60
undefined, undefined, left, 1, 2.312999999999999, 1, 0, 80, 13, 1, 79, mech, 4, left, cansel, 001, 2020-11-27_16h33.12.092, lexical_decision_task, 3.0.0b12, 60
undefined, undefined, left, 1, 1.9649999999999963, 1, 0, 80, 43, 1, 79, countey, 7, left, cansel, 001, 2020-11-27_16h33.12.092, lexical_decision_task, 3.0.0b12, 60
undefined, undefined, left, 1, 2.078000000000003, 1, 0, 80, 53, 1, 79, rememper, 8, left, cansel, 001, 2020-11-27_16h33.12.092, lexical_decision_task, 3.0.0b12, 60
undefined, undefined, right, 1, 2.1969999999999956, 1, 0, 80, 60, 1, 79, different, 9, right, cansel, 001, 2020-11-27_16h33.12.092, lexical_decision_task, 3.0.0b12, 60
undefined, undefined, left, 1, 2.0360000000000014, 1, 0, 80, 41, 1, 79, pregram, 7, left, cansel, 001, 2020-11-27_16h33.12.092, lexical_decision_task, 3.0.0b12, 60
undefined, undefined, right, 1, 2, 1, 0, 80, 2, 1, 79, and, 3, right, cansel, 001, 2020-11-27_16h33.12.092, lexical_decision_task, 3.0.0b12, 60
undefined, undefined, left, 1, 2.3089999999999975, 1, 0, 80, 23, 1, 79, aboot, 5, left, cansel, 001, 2020-11-27_16h33.12.092, lexical_decision_task, 3.0.0b12, 60
undefined, undefined, left, 1, 2.0080000000000027, 1, 0, 80, 1, 1, 79, woy, 3, left, cansel, 001, 2020-11-27_16h33.12.092, lexical_decision_task, 3.0.0b12, 60
undefined, undefined, right, 1, 2.1779999999999973, 1, 0, 80, 30, 1, 79, should, 6, right, cansel, 001, 2020-11-27_16h33.12.092, lexical_decision_task, 3.0.0b12, 60
undefined, undefined, left, 1, 1.814, 1, 0, 80, 17, 1, 79, heur, 4, left, cansel, 001, 2020-11-27_16h33.12.092, lexical_decision_task, 3.0.0b12, 60
undefined, undefined, right, 1, 2.5790000000000006, 1, 0, 80, 78, 1, 79, population, 10, right, cansel, 001, 2020-11-27_16h33.12.092, lexical_decision_task, 3.0.0b12, 60
undefined, undefined, right, 1, 2.564, 1, 0, 80, 10, 1, 79, want, 4, right, cansel, 001, 2020-11-27_16h33.12.092, lexical_decision_task, 3.0.0b12, 60
undefined, undefined, right, 1, 3.8329999999999984, 1, 0, 80, 44, 1, 79, between, 7, right, cansel, 001, 2020-11-27_16h33.12.092, lexical_decision_task, 3.0.0b12, 60
undefined, undefined, left, 1, 1.8149999999999977, 1, 0, 80, 33, 1, 79, becone, 6, left, cansel, 001, 2020-11-27_16h33.12.092, lexical_decision_task, 3.0.0b12, 60
undefined, undefined, left, 1, 2.5889999999999915, 1, 0, 80, 45, 1, 79, bedween, 7, left, cansel, 001, 2020-11-27_16h33.12.092, lexical_decision_task, 3.0.0b12, 60
undefined, undefined, right, 1, 2.117999999999995, 1, 0, 80, 36, 1, 79, decade, 6, right, cansel, 001, 2020-11-27_16h33.12.092, lexical_decision_task, 3.0.0b12, 60
undefined, undefined, right, 1, 2.576999999999998, 1, 0, 80, 58, 1, 79, research, 8, right, cansel, 001, 2020-11-27_16h33.12.092, lexical_decision_task, 3.0.0b12, 60
undefined, undefined, right, 1, 1.7439999999999998, 1, 0, 80, 22, 1, 79, about, 5, right, cansel, 001, 2020-11-27_16h33.12.092, lexical_decision_task, 3.0.0b12, 60
undefined, undefined, left, 1, 2.013999999999996, 1, 0, 80, 29, 1, 79, courd, 5, left, cansel, 001, 2020-11-27_16h33.12.092, lexical_decision_task, 3.0.0b12, 60
undefined, undefined, right, 1, 1.7800000000000011, 1, 0, 80, 62, 1, 79, important, 9, right, cansel, 001, 2020-11-27_16h33.12.092, lexical_decision_task, 3.0.0b12, 60
undefined, undefined, right, 1, 1.7970000000000113, 1, 0, 80, 64, 1, 79, political, 9, right, cansel, 001, 2020-11-27_16h33.12.092, lexical_decision_task, 3.0.0b12, 60
undefined, undefined, left, 1, 2.004000000000005, 1, 0, 80, 49, 1, 79, beliefe, 7, left, cansel, 001, 2020-11-27_16h33.12.092, lexical_decision_task, 3.0.0b12, 60
undefined, undefined, left, 1, 1.8619999999999948, 1, 0, 80, 69, 1, 79, incluting, 9, left, cansel, 001, 2020-11-27_16h33.12.092, lexical_decision_task, 3.0.0b12, 60
undefined, undefined, right, 1, 1.9299999999999926, 1, 0, 80, 46, 1, 79, company, 7, right, cansel, 001, 2020-11-27_16h33.12.092, lexical_decision_task, 3.0.0b12, 60
undefined, undefined, left, 1, 1.8429999999999893, 1, 0, 80, 9, 1, 79, ous, 3, left, cansel, 001, 2020-11-27_16h33.12.092, lexical_decision_task, 3.0.0b12, 60
undefined, undefined, left, 1, 1.9650000000000034, 1, 0, 80, 73, 1, 79, exberience, 10, left, cansel, 001, 2020-11-27_16h33.12.092, lexical_decision_task, 3.0.0b12, 60
undefined, undefined, right, 1, 2.066999999999993, 1, 0, 80, 28, 1, 79, could, 5, right, cansel, 001, 2020-11-27_16h33.12.092, lexical_decision_task, 3.0.0b12, 60
undefined, undefined, left, 1, 1.7749999999999915, 1, 0, 80, 27, 1, 79, whicb, 5, left, cansel, 001, 2020-11-27_16h33.12.092, lexical_decision_task, 3.0.0b12, 60
undefined, undefined, right, 1, 1.7459999999999951, 1, 0, 80, 52, 1, 79, remember, 8, right, cansel, 001, 2020-11-27_16h33.12.092, lexical_decision_task, 3.0.0b12, 60
undefined, undefined, right, 0, 2.4140000000000015, 1, 0, 80, 77, 1, 79, tochnology, 10, left, cansel, 001, 2020-11-27_16h33.12.092, lexical_decision_task, 3.0.0b12, 60
undefined, undefined, right, 1, 1.9140000000000015, 1, 0, 80, 6, 1, 79, for, 3, right, cansel, 001, 2020-11-27_16h33.12.092, lexical_decision_task, 3.0.0b12, 60
undefined, undefined, left, 1, 2.2460000000000093, 1, 0, 80, 57, 1, 79, anythink, 8, left, cansel, 001, 2020-11-27_16h33.12.092, lexical_decision_task, 3.0.0b12, 60
undefined, undefined, right, 0, 5.346999999999994, 1, 0, 80, 51, 1, 79, bussness, 8, left, cansel, 001, 2020-11-27_16h33.12.092, lexical_decision_task, 3.0.0b12, 60
undefined, undefined, left, 1, 1.945999999999998, 1, 0, 80, 19, 1, 79, lipe, 4, left, cansel, 001, 2020-11-27_16h33.12.092, lexical_decision_task, 3.0.0b12, 60
undefined, undefined, left, 1, 1.7630000000000052, 1, 0, 80, 21, 1, 79, theyr, 5, left, cansel, 001, 2020-11-27_16h33.12.092, lexical_decision_task, 3.0.0b12, 60
undefined, undefined, left, 1, 2.4129999999999967, 1, 0, 80, 67, 1, 79, compunity, 9, left, cansel, 001, 2020-11-27_16h33.12.092, lexical_decision_task, 3.0.0b12, 60
undefined, undefined, left, 1, 1.7789999999999964, 1, 0, 80, 25, 1, 79, thenk, 5, left, cansel, 001, 2020-11-27_16h33.12.092, lexical_decision_task, 3.0.0b12, 60
undefined, undefined, left, 1, 1.7779999999999916, 1, 0, 80, 79, 1, 79, bopulation, 10, left, cansel, 001, 2020-11-27_16h33.12.092, lexical_decision_task, 3.0.0b12, 60
undefined, undefined, right, 1, 1.8960000000000008, 1, 0, 80, 54, 1, 79, question, 8, right, cansel, 001, 2020-11-27_16h33.12.092, lexical_decision_task, 3.0.0b12, 60
undefined, undefined, right, 1, 2.1779999999999973, 1, 0, 80, 34, 1, 79, factor, 6, right, cansel, 001, 2020-11-27_16h33.12.092, lexical_decision_task, 3.0.0b12, 60
undefined, undefined, right, 1, 2.379000000000005, 1, 0, 80, 74, 1, 79, especially, 10, right, cansel, 001, 2020-11-27_16h33.12.092, lexical_decision_task, 3.0.0b12, 60
undefined, undefined, right, 1, 1.7480000000000047, 1, 0, 80, 18, 1, 79, line, 4, right, cansel, 001, 2020-11-27_16h33.12.092, lexical_decision_task, 3.0.0b12, 60
undefined, undefined, left, 1, 1.8979999999999961, 1, 0, 80, 71, 1, 79, eferything, 10, left, cansel, 001, 2020-11-27_16h33.12.092, lexical_decision_task, 3.0.0b12, 60
undefined, undefined, left, 1, 1.8520000000000039, 1, 0, 80, 61, 1, 79, bifferent, 9, left, cansel, 001, 2020-11-27_16h33.12.092, lexical_decision_task, 3.0.0b12, 60
undefined, undefined, right, 1, 3.1260000000000048, 1, 0, 80, 50, 1, 79, business, 8, right, cansel, 001, 2020-11-27_16h33.12.092, lexical_decision_task, 3.0.0b12, 60
undefined, undefined, left, 1, 1.789999999999992, 1, 0, 80, 3, 1, 79, anf, 3, left, cansel, 001, 2020-11-27_16h33.12.092, lexical_decision_task, 3.0.0b12, 60
undefined, undefined, right, 1, 2.179000000000002, 1, 0, 80, 40, 1, 79, program, 7, right, cansel, 001, 2020-11-27_16h33.12.092, lexical_decision_task, 3.0.0b12, 60
undefined, undefined, left, 1, 2.6299999999999955, 1, 0, 80, 37, 1, 79, secade, 6, left, cansel, 001, 2020-11-27_16h33.12.092, lexical_decision_task, 3.0.0b12, 60
undefined, undefined, left, 1, 1.5790000000000077, 1, 0, 80, 11, 1, 79, wunt, 4, left, cansel, 001, 2020-11-27_16h33.12.092, lexical_decision_task, 3.0.0b12, 60
undefined, undefined, right, 0, 2.5479999999999734, 1, 0, 80, 31, 1, 79, shoule, 6, left, cansel, 001, 2020-11-27_16h33.12.092, lexical_decision_task, 3.0.0b12, 60
undefined, undefined, right, 1, 1.0149999999999864, 1, 0, 80, 4, 1, 79, new, 3, right, cansel, 001, 2020-11-27_16h33.12.092, lexical_decision_task, 3.0.0b12, 60
undefined, undefined, right, 0, 1.328000000000003, 1, 0, 80, 65, 1, 79, pofitical, 9, left, cansel, 001, 2020-11-27_16h33.12.092, lexical_decision_task, 3.0.0b12, 60
undefined, undefined, right, 0, 1.0170000000000243, 1, 0, 80, 63, 1, 79, importent, 9, left, cansel, 001, 2020-11-27_16h33.12.092, lexical_decision_task, 3.0.0b12, 60
undefined, undefined, right, 1, 1.4620000000000175, 1, 0, 80, 72, 1, 79, experience, 10, right, cansel, 001, 2020-11-27_16h33.12.092, lexical_decision_task, 3.0.0b12, 60
undefined, undefined, right, 0, 1.2609999999999957, 1, 0, 80, 15, 1, 79, ptay, 4, left, cansel, 001, 2020-11-27_16h33.12.092, lexical_decision_task, 3.0.0b12, 60
undefined, undefined, right, 0, 1.281000000000006, 1, 0, 80, 55, 1, 79, quesdion, 8, left, cansel, 001, 2020-11-27_16h33.12.092, lexical_decision_task, 3.0.0b12, 60
undefined, undefined, right, 1, 1.2959999999999923, 1, 0, 80, 38, 1, 79, system, 6, right, cansel, 001, 2020-11-27_16h33.12.092, lexical_decision_task, 3.0.0b12, 60
undefined, undefined, right, 1, 1.2349999999999852, 1, 0, 80, 56, 1, 79, anything, 8, right, cansel, 001, 2020-11-27_16h33.12.092, lexical_decision_task, 3.0.0b12, 60
undefined, undefined, right, 1, 1.0790000000000077, 1, 0, 80, 14, 1, 79, play, 4, right, cansel, 001, 2020-11-27_16h33.12.092, lexical_decision_task, 3.0.0b12, 60
undefined, undefined, right, 1, 1.0160000000000196, 1, 0, 80, 26, 1, 79, which, 5, right, cansel, 001, 2020-11-27_16h33.12.092, lexical_decision_task, 3.0.0b12, 60
undefined, undefined, right, 1, 1.2809999999999775, 1, 0, 80, 20, 1, 79, their, 5, right, cansel, 001, 2020-11-27_16h33.12.092, lexical_decision_task, 3.0.0b12, 60
undefined, undefined, right, 1, 1.311000000000007, 1, 0, 80, 12, 1, 79, much, 4, right, cansel, 001, 2020-11-27_16h33.12.092, lexical_decision_task, 3.0.0b12, 60
undefined, undefined, right, 0, 1.163000000000011, 1, 0, 80, 47, 1, 79, compane, 7, left, cansel, 001, 2020-11-27_16h33.12.092, lexical_decision_task, 3.0.0b12, 60
undefined, undefined, right, 1, 1.1289999999999907, 1, 0, 80, 24, 1, 79, think, 5, right, cansel, 001, 2020-11-27_16h33.12.092, lexical_decision_task, 3.0.0b12, 60
undefined, undefined, right, 0, 1.26400000000001, 1, 0, 80, 39, 1, 79, sistem, 6, left, cansel, 001, 2020-11-27_16h33.12.092, lexical_decision_task, 3.0.0b12, 60
undefined, undefined, right, 0, 1.2479999999999905, 1, 0, 80, 7, 1, 79, fot, 3, left, cansel, 001, 2020-11-27_16h33.12.092, lexical_decision_task, 3.0.0b12, 60
undefined, undefined, right, 0, 1.089999999999975, 1, 0, 80, 75, 1, 79, especialty, 10, left, cansel, 001, 2020-11-27_16h33.12.092, lexical_decision_task, 3.0.0b12, 60
undefined, undefined, right, 1, 1.288000000000011, 1, 0, 80, 42, 1, 79, country, 7, right, cansel, 001, 2020-11-27_16h33.12.092, lexical_decision_task, 3.0.0b12, 60
undefined, undefined, right, 0, 1.2909999999999968, 1, 0, 80, 5, 1, 79, neu, 3, left, cansel, 001, 2020-11-27_16h33.12.092, lexical_decision_task, 3.0.0b12, 60
undefined, undefined, right, 1, 1.8129999999999882, 1, 0, 80, 16, 1, 79, hour, 4, right, cansel, 001, 2020-11-27_16h33.12.092, lexical_decision_task, 3.0.0b12, 60
undefined, undefined, right, 1, 1.0619999999999834, 1, 0, 80, 8, 1, 79, out, 3, right, cansel, 001, 2020-11-27_16h33.12.092, lexical_decision_task, 3.0.0b12, 60
undefined, undefined, right, 1, 1.8959999999999866, 1, 0, 80, 0, 1, 79, way, 3, right, cansel, 001, 2020-11-27_16h33.12.092, lexical_decision_task, 3.0.0b12, 60
