key_resp_1.keys, key_resp_1.rt, response.keys, response.corr, response.rt, trials.thisRepN, trials.thisTrialN, trials.thisN, trials.thisIndex, trials.ran, trials.order, words, number_of_letters, corrAns, participant, session, date, expName, psychopyVersion, frameRate
space, 7.036, right, 0, 2.5519999999999996, 1, 0, 80, 31, 1, 79, shoule, 6, left, j, 001, 2023-07-11_15h03.45.275, lexical_decision_task, 3.0.0b12, 60
undefined, undefined, right, 1, 1.5710000000000015, 1, 0, 80, 42, 1, 79, country, 7, right, j, 001, 2023-07-11_15h03.45.275, lexical_decision_task, 3.0.0b12, 60
undefined, undefined, left, 1, 2.067999999999998, 1, 0, 80, 45, 1, 79, bedween, 7, left, j, 001, 2023-07-11_15h03.45.275, lexical_decision_task, 3.0.0b12, 60
undefined, undefined, right, 1, 1.943999999999999, 1, 0, 80, 62, 1, 79, important, 9, right, j, 001, 2023-07-11_15h03.45.275, lexical_decision_task, 3.0.0b12, 60
undefined, undefined, right, 1, 1.6970000000000027, 1, 0, 80, 10, 1, 79, want, 4, right, j, 001, 2023-07-11_15h03.45.275, lexical_decision_task, 3.0.0b12, 60
undefined, undefined, left, 1, 2.285, 1, 0, 80, 23, 1, 79, aboot, 5, left, j, 001, 2023-07-11_15h03.45.275, lexical_decision_task, 3.0.0b12, 60
undefined, undefined, right, 1, 1.7310000000000016, 1, 0, 80, 8, 1, 79, out, 3, right, j, 001, 2023-07-11_15h03.45.275, lexical_decision_task, 3.0.0b12, 60
undefined, undefined, right, 1, 1.6050000000000004, 1, 0, 80, 48, 1, 79, believe, 7, right, j, 001, 2023-07-11_15h03.45.275, lexical_decision_task, 3.0.0b12, 60
undefined, undefined, left, 1, 2.274000000000001, 1, 0, 80, 7, 1, 79, fot, 3, left, j, 001, 2023-07-11_15h03.45.275, lexical_decision_task, 3.0.0b12, 60
undefined, undefined, right, 1, 1.777000000000001, 1, 0, 80, 70, 1, 79, everything, 10, right, j, 001, 2023-07-11_15h03.45.275, lexical_decision_task, 3.0.0b12, 60
undefined, undefined, left, 1, 2.5090000000000003, 1, 0, 80, 53, 1, 79, rememper, 8, left, j, 001, 2023-07-11_15h03.45.275, lexical_decision_task, 3.0.0b12, 60
undefined, undefined, right, 0, 2.073999999999998, 1, 0, 80, 51, 1, 79, bussness, 8, left, j, 001, 2023-07-11_15h03.45.275, lexical_decision_task, 3.0.0b12, 60
undefined, undefined, left, 1, 2.0290000000000035, 1, 0, 80, 29, 1, 79, courd, 5, left, j, 001, 2023-07-11_15h03.45.275, lexical_decision_task, 3.0.0b12, 60
undefined, undefined, right, 1, 1.7890000000000015, 1, 0, 80, 16, 1, 79, hour, 4, right, j, 001, 2023-07-11_15h03.45.275, lexical_decision_task, 3.0.0b12, 60
undefined, undefined, right, 1, 2.113999999999997, 1, 0, 80, 52, 1, 79, remember, 8, right, j, 001, 2023-07-11_15h03.45.275, lexical_decision_task, 3.0.0b12, 60
undefined, undefined, right, 1, 1.7890000000000015, 1, 0, 80, 64, 1, 79, political, 9, right, j, 001, 2023-07-11_15h03.45.275, lexical_decision_task, 3.0.0b12, 60
undefined, undefined, left, 1, 2.163000000000004, 1, 0, 80, 19, 1, 79, lipe, 4, left, j, 001, 2023-07-11_15h03.45.275, lexical_decision_task, 3.0.0b12, 60
undefined, undefined, left, 1, 2.1409999999999982, 1, 0, 80, 43, 1, 79, countey, 7, left, j, 001, 2023-07-11_15h03.45.275, lexical_decision_task, 3.0.0b12, 60
undefined, undefined, left, 1, 1.8500000000000014, 1, 0, 80, 57, 1, 79, anythink, 8, left, j, 001, 2023-07-11_15h03.45.275, lexical_decision_task, 3.0.0b12, 60
undefined, undefined, left, 1, 2.0649999999999977, 1, 0, 80, 65, 1, 79, pofitical, 9, left, j, 001, 2023-07-11_15h03.45.275, lexical_decision_task, 3.0.0b12, 60
undefined, undefined, right, 1, 1.8519999999999968, 1, 0, 80, 78, 1, 79, population, 10, right, j, 001, 2023-07-11_15h03.45.275, lexical_decision_task, 3.0.0b12, 60
undefined, undefined, right, 1, 2.230000000000004, 1, 0, 80, 56, 1, 79, anything, 8, right, j, 001, 2023-07-11_15h03.45.275, lexical_decision_task, 3.0.0b12, 60
undefined, undefined, left, 1, 1.7759999999999962, 1, 0, 80, 9, 1, 79, ous, 3, left, j, 001, 2023-07-11_15h03.45.275, lexical_decision_task, 3.0.0b12, 60
undefined, undefined, right, 1, 2.149000000000001, 1, 0, 80, 24, 1, 79, think, 5, right, j, 001, 2023-07-11_15h03.45.275, lexical_decision_task, 3.0.0b12, 60
undefined, undefined, left, 1, 3.5379999999999967, 1, 0, 80, 13, 1, 79, mech, 4, left, j, 001, 2023-07-11_15h03.45.275, lexical_decision_task, 3.0.0b12, 60
undefined, undefined, left, 1, 2.808000000000007, 1, 0, 80, 75, 1, 79, especialty, 10, left, j, 001, 2023-07-11_15h03.45.275, lexical_decision_task, 3.0.0b12, 60
undefined, undefined, right, 1, 1.7659999999999911, 1, 0, 80, 26, 1, 79, which, 5, right, j, 001, 2023-07-11_15h03.45.275, lexical_decision_task, 3.0.0b12, 60
undefined, undefined, left, 1, 1.7660000000000053, 1, 0, 80, 39, 1, 79, sistem, 6, left, j, 001, 2023-07-11_15h03.45.275, lexical_decision_task, 3.0.0b12, 60
undefined, undefined, left, 1, 1.9650000000000034, 1, 0, 80, 27, 1, 79, whicb, 5, left, j, 001, 2023-07-11_15h03.45.275, lexical_decision_task, 3.0.0b12, 60
undefined, undefined, left, 1, 1.8230000000000075, 1, 0, 80, 33, 1, 79, becone, 6, left, j, 001, 2023-07-11_15h03.45.275, lexical_decision_task, 3.0.0b12, 60
undefined, undefined, right, 1, 1.9699999999999989, 1, 0, 80, 20, 1, 79, their, 5, right, j, 001, 2023-07-11_15h03.45.275, lexical_decision_task, 3.0.0b12, 60
undefined, undefined, left, 1, 1.7489999999999952, 1, 0, 80, 25, 1, 79, thenk, 5, left, j, 001, 2023-07-11_15h03.45.275, lexical_decision_task, 3.0.0b12, 60
undefined, undefined, right, 1, 1.5820000000000078, 1, 0, 80, 0, 1, 79, way, 3, right, j, 001, 2023-07-11_15h03.45.275, lexical_decision_task, 3.0.0b12, 60
undefined, undefined, right, 1, 1.4980000000000047, 1, 0, 80, 30, 1, 79, should, 6, right, j, 001, 2023-07-11_15h03.45.275, lexical_decision_task, 3.0.0b12, 60
undefined, undefined, right, 1, 1.5990000000000038, 1, 0, 80, 46, 1, 79, company, 7, right, j, 001, 2023-07-11_15h03.45.275, lexical_decision_task, 3.0.0b12, 60
undefined, undefined, left, 1, 1.5660000000000025, 1, 0, 80, 5, 1, 79, neu, 3, left, j, 001, 2023-07-11_15h03.45.275, lexical_decision_task, 3.0.0b12, 60
undefined, undefined, right, 1, 1.6330000000000098, 1, 0, 80, 40, 1, 79, program, 7, right, j, 001, 2023-07-11_15h03.45.275, lexical_decision_task, 3.0.0b12, 60
undefined, undefined, left, 1, 1.6239999999999952, 1, 0, 80, 63, 1, 79, importent, 9, left, j, 001, 2023-07-11_15h03.45.275, lexical_decision_task, 3.0.0b12, 60
undefined, undefined, right, 1, 1.5600000000000023, 1, 0, 80, 54, 1, 79, question, 8, right, j, 001, 2023-07-11_15h03.45.275, lexical_decision_task, 3.0.0b12, 60
undefined, undefined, right, 1, 1.8799999999999955, 1, 0, 80, 72, 1, 79, experience, 10, right, j, 001, 2023-07-11_15h03.45.275, lexical_decision_task, 3.0.0b12, 60
undefined, undefined, left, 1, 1.6460000000000008, 1, 0, 80, 21, 1, 79, theyr, 5, left, j, 001, 2023-07-11_15h03.45.275, lexical_decision_task, 3.0.0b12, 60
undefined, undefined, left, 1, 1.6180000000000092, 1, 0, 80, 35, 1, 79, fector, 6, left, j, 001, 2023-07-11_15h03.45.275, lexical_decision_task, 3.0.0b12, 60
undefined, undefined, right, 1, 1.7019999999999982, 1, 0, 80, 34, 1, 79, factor, 6, right, j, 001, 2023-07-11_15h03.45.275, lexical_decision_task, 3.0.0b12, 60
undefined, undefined, right, 1, 1.6289999999999907, 1, 0, 80, 28, 1, 79, could, 5, right, j, 001, 2023-07-11_15h03.45.275, lexical_decision_task, 3.0.0b12, 60
undefined, undefined, right, 1, 1.5879999999999939, 1, 0, 80, 18, 1, 79, line, 4, right, j, 001, 2023-07-11_15h03.45.275, lexical_decision_task, 3.0.0b12, 60
undefined, undefined, left, 1, 1.652000000000001, 1, 0, 80, 47, 1, 79, compane, 7, left, j, 001, 2023-07-11_15h03.45.275, lexical_decision_task, 3.0.0b12, 60
undefined, undefined, left, 1, 1.5130000000000052, 1, 0, 80, 17, 1, 79, heur, 4, left, j, 001, 2023-07-11_15h03.45.275, lexical_decision_task, 3.0.0b12, 60
undefined, undefined, right, 1, 2.1540000000000106, 1, 0, 80, 44, 1, 79, between, 7, right, j, 001, 2023-07-11_15h03.45.275, lexical_decision_task, 3.0.0b12, 60
undefined, undefined, right, 1, 1.5759999999999934, 1, 0, 80, 6, 1, 79, for, 3, right, j, 001, 2023-07-11_15h03.45.275, lexical_decision_task, 3.0.0b12, 60
undefined, undefined, right, 1, 1.7890000000000015, 1, 0, 80, 68, 1, 79, including, 9, right, j, 001, 2023-07-11_15h03.45.275, lexical_decision_task, 3.0.0b12, 60
undefined, undefined, left, 1, 1.6969999999999885, 1, 0, 80, 55, 1, 79, quesdion, 8, left, j, 001, 2023-07-11_15h03.45.275, lexical_decision_task, 3.0.0b12, 60
undefined, undefined, left, 1, 1.7780000000000058, 1, 0, 80, 69, 1, 79, incluting, 9, left, j, 001, 2023-07-11_15h03.45.275, lexical_decision_task, 3.0.0b12, 60
undefined, undefined, right, 1, 2.8130000000000024, 1, 0, 80, 76, 1, 79, technology, 10, right, j, 001, 2023-07-11_15h03.45.275, lexical_decision_task, 3.0.0b12, 60
undefined, undefined, left, 1, 1.8830000000000098, 1, 0, 80, 77, 1, 79, tochnology, 10, left, j, 001, 2023-07-11_15h03.45.275, lexical_decision_task, 3.0.0b12, 60
undefined, undefined, right, 1, 2.0690000000000026, 1, 0, 80, 66, 1, 79, community, 9, right, j, 001, 2023-07-11_15h03.45.275, lexical_decision_task, 3.0.0b12, 60
undefined, undefined, right, 1, 1.9939999999999998, 1, 0, 80, 32, 1, 79, become, 6, right, j, 001, 2023-07-11_15h03.45.275, lexical_decision_task, 3.0.0b12, 60
undefined, undefined, right, 1, 1.600999999999999, 1, 0, 80, 14, 1, 79, play, 4, right, j, 001, 2023-07-11_15h03.45.275, lexical_decision_task, 3.0.0b12, 60
undefined, undefined, left, 1, 1.6599999999999966, 1, 0, 80, 61, 1, 79, bifferent, 9, left, j, 001, 2023-07-11_15h03.45.275, lexical_decision_task, 3.0.0b12, 60
undefined, undefined, left, 1, 1.6020000000000039, 1, 0, 80, 41, 1, 79, pregram, 7, left, j, 001, 2023-07-11_15h03.45.275, lexical_decision_task, 3.0.0b12, 60
undefined, undefined, right, 1, 1.9410000000000025, 1, 0, 80, 60, 1, 79, different, 9, right, j, 001, 2023-07-11_15h03.45.275, lexical_decision_task, 3.0.0b12, 60
undefined, undefined, right, 1, 1.72199999999998, 1, 0, 80, 12, 1, 79, much, 4, right, j, 001, 2023-07-11_15h03.45.275, lexical_decision_task, 3.0.0b12, 60
undefined, undefined, left, 1, 1.7600000000000193, 1, 0, 80, 67, 1, 79, compunity, 9, left, j, 001, 2023-07-11_15h03.45.275, lexical_decision_task, 3.0.0b12, 60
undefined, undefined, left, 1, 1.7480000000000189, 1, 0, 80, 37, 1, 79, secade, 6, left, j, 001, 2023-07-11_15h03.45.275, lexical_decision_task, 3.0.0b12, 60
undefined, undefined, left, 1, 2.1380000000000052, 1, 0, 80, 59, 1, 79, pesearch, 8, left, j, 001, 2023-07-11_15h03.45.275, lexical_decision_task, 3.0.0b12, 60
undefined, undefined, right, 1, 2.4679999999999893, 1, 0, 80, 74, 1, 79, especially, 10, right, j, 001, 2023-07-11_15h03.45.275, lexical_decision_task, 3.0.0b12, 60
undefined, undefined, left, 1, 1.8300000000000125, 1, 0, 80, 79, 1, 79, bopulation, 10, left, j, 001, 2023-07-11_15h03.45.275, lexical_decision_task, 3.0.0b12, 60
undefined, undefined, right, 1, 1.7249999999999943, 1, 0, 80, 36, 1, 79, decade, 6, right, j, 001, 2023-07-11_15h03.45.275, lexical_decision_task, 3.0.0b12, 60
undefined, undefined, right, 1, 1.6569999999999823, 1, 0, 80, 22, 1, 79, about, 5, right, j, 001, 2023-07-11_15h03.45.275, lexical_decision_task, 3.0.0b12, 60
undefined, undefined, left, 1, 1.5999999999999943, 1, 0, 80, 15, 1, 79, ptay, 4, left, j, 001, 2023-07-11_15h03.45.275, lexical_decision_task, 3.0.0b12, 60
undefined, undefined, right, 1, 1.6620000000000061, 1, 0, 80, 38, 1, 79, system, 6, right, j, 001, 2023-07-11_15h03.45.275, lexical_decision_task, 3.0.0b12, 60
undefined, undefined, left, 1, 1.6800000000000068, 1, 0, 80, 71, 1, 79, eferything, 10, left, j, 001, 2023-07-11_15h03.45.275, lexical_decision_task, 3.0.0b12, 60
undefined, undefined, left, 1, 1.5370000000000061, 1, 0, 80, 3, 1, 79, anf, 3, left, j, 001, 2023-07-11_15h03.45.275, lexical_decision_task, 3.0.0b12, 60
undefined, undefined, right, 1, 1.8459999999999752, 1, 0, 80, 50, 1, 79, business, 8, right, j, 001, 2023-07-11_15h03.45.275, lexical_decision_task, 3.0.0b12, 60
undefined, undefined, left, 1, 1.983000000000004, 1, 0, 80, 49, 1, 79, beliefe, 7, left, j, 001, 2023-07-11_15h03.45.275, lexical_decision_task, 3.0.0b12, 60
undefined, undefined, right, 1, 1.5840000000000032, 1, 0, 80, 2, 1, 79, and, 3, right, j, 001, 2023-07-11_15h03.45.275, lexical_decision_task, 3.0.0b12, 60
undefined, undefined, left, 1, 1.6280000000000143, 1, 0, 80, 73, 1, 79, exberience, 10, left, j, 001, 2023-07-11_15h03.45.275, lexical_decision_task, 3.0.0b12, 60
undefined, undefined, right, 1, 1.5829999999999984, 1, 0, 80, 4, 1, 79, new, 3, right, j, 001, 2023-07-11_15h03.45.275, lexical_decision_task, 3.0.0b12, 60
undefined, undefined, left, 1, 1.6759999999999877, 1, 0, 80, 1, 1, 79, woy, 3, left, j, 001, 2023-07-11_15h03.45.275, lexical_decision_task, 3.0.0b12, 60
undefined, undefined, right, 1, 1.6680000000000064, 1, 0, 80, 58, 1, 79, research, 8, right, j, 001, 2023-07-11_15h03.45.275, lexical_decision_task, 3.0.0b12, 60
undefined, undefined, left, 1, 1.561000000000007, 1, 0, 80, 11, 1, 79, wunt, 4, left, j, 001, 2023-07-11_15h03.45.275, lexical_decision_task, 3.0.0b12, 60
