key_resp_1.keys, key_resp_1.rt, response.keys, response.corr, response.rt, trials.thisRepN, trials.thisTrialN, trials.thisN, trials.thisIndex, trials.ran, trials.order, words, number_of_letters, corrAns, participant, session, date, expName, psychopyVersion, frameRate
space, 15.717, right, 1, 3.261000000000003, 1, 0, 80, 4, 1, 79, new, 3, right, JAS, 001, 2023-03-11_20h35.59.635, lexical_decision_task, 3.0.0b12, 60
undefined, undefined, left, 1, 2.728999999999999, 1, 0, 80, 35, 1, 79, fector, 6, left, JAS, 001, 2023-03-11_20h35.59.635, lexical_decision_task, 3.0.0b12, 60
undefined, undefined, right, 1, 1.7469999999999999, 1, 0, 80, 54, 1, 79, question, 8, right, JAS, 001, 2023-03-11_20h35.59.635, lexical_decision_task, 3.0.0b12, 60
undefined, undefined, left, 1, 1.8490000000000038, 1, 0, 80, 73, 1, 79, exberience, 10, left, JAS, 001, 2023-03-11_20h35.59.635, lexical_decision_task, 3.0.0b12, 60
undefined, undefined, left, 1, 1.649000000000001, 1, 0, 80, 49, 1, 79, beliefe, 7, left, JAS, 001, 2023-03-11_20h35.59.635, lexical_decision_task, 3.0.0b12, 60
undefined, undefined, right, 1, 1.6970000000000027, 1, 0, 80, 24, 1, 79, think, 5, right, JAS, 001, 2023-03-11_20h35.59.635, lexical_decision_task, 3.0.0b12, 60
undefined, undefined, right, 1, 1.764000000000003, 1, 0, 80, 28, 1, 79, could, 5, right, JAS, 001, 2023-03-11_20h35.59.635, lexical_decision_task, 3.0.0b12, 60
undefined, undefined, right, 1, 1.814, 1, 0, 80, 8, 1, 79, out, 3, right, JAS, 001, 2023-03-11_20h35.59.635, lexical_decision_task, 3.0.0b12, 60
undefined, undefined, right, 1, 1.7809999999999988, 1, 0, 80, 66, 1, 79, community, 9, right, JAS, 001, 2023-03-11_20h35.59.635, lexical_decision_task, 3.0.0b12, 60
undefined, undefined, left, 1, 1.631999999999998, 1, 0, 80, 9, 1, 79, ous, 3, left, JAS, 001, 2023-03-11_20h35.59.635, lexical_decision_task, 3.0.0b12, 60
undefined, undefined, left, 1, 1.8649999999999949, 1, 0, 80, 69, 1, 79, incluting, 9, left, JAS, 001, 2023-03-11_20h35.59.635, lexical_decision_task, 3.0.0b12, 60
undefined, undefined, right, 1, 1.6649999999999991, 1, 0, 80, 48, 1, 79, believe, 7, right, JAS, 001, 2023-03-11_20h35.59.635, lexical_decision_task, 3.0.0b12, 60
undefined, undefined, left, 1, 1.6820000000000022, 1, 0, 80, 29, 1, 79, courd, 5, left, JAS, 001, 2023-03-11_20h35.59.635, lexical_decision_task, 3.0.0b12, 60
undefined, undefined, left, 1, 1.7479999999999976, 1, 0, 80, 31, 1, 79, shoule, 6, left, JAS, 001, 2023-03-11_20h35.59.635, lexical_decision_task, 3.0.0b12, 60
undefined, undefined, right, 1, 1.6479999999999961, 1, 0, 80, 60, 1, 79, different, 9, right, JAS, 001, 2023-03-11_20h35.59.635, lexical_decision_task, 3.0.0b12, 60
undefined, undefined, right, 1, 1.6820000000000022, 1, 0, 80, 40, 1, 79, program, 7, right, JAS, 001, 2023-03-11_20h35.59.635, lexical_decision_task, 3.0.0b12, 60
undefined, undefined, right, 1, 1.6159999999999997, 1, 0, 80, 70, 1, 79, everything, 10, right, JAS, 001, 2023-03-11_20h35.59.635, lexical_decision_task, 3.0.0b12, 60
undefined, undefined, left, 1, 1.7830000000000013, 1, 0, 80, 23, 1, 79, aboot, 5, left, JAS, 001, 2023-03-11_20h35.59.635, lexical_decision_task, 3.0.0b12, 60
undefined, undefined, left, 1, 1.9320000000000022, 1, 0, 80, 61, 1, 79, bifferent, 9, left, JAS, 001, 2023-03-11_20h35.59.635, lexical_decision_task, 3.0.0b12, 60
undefined, undefined, right, 1, 1.833999999999989, 1, 0, 80, 20, 1, 79, their, 5, right, JAS, 001, 2023-03-11_20h35.59.635, lexical_decision_task, 3.0.0b12, 60
undefined, undefined, right, 1, 1.7439999999999998, 1, 0, 80, 30, 1, 79, should, 6, right, JAS, 001, 2023-03-11_20h35.59.635, lexical_decision_task, 3.0.0b12, 60
undefined, undefined, left, 1, 1.7139999999999986, 1, 0, 80, 21, 1, 79, theyr, 5, left, JAS, 001, 2023-03-11_20h35.59.635, lexical_decision_task, 3.0.0b12, 60
undefined, undefined, right, 1, 1.7860000000000014, 1, 0, 80, 6, 1, 79, for, 3, right, JAS, 001, 2023-03-11_20h35.59.635, lexical_decision_task, 3.0.0b12, 60
undefined, undefined, right, 1, 1.76400000000001, 1, 0, 80, 34, 1, 79, factor, 6, right, JAS, 001, 2023-03-11_20h35.59.635, lexical_decision_task, 3.0.0b12, 60
undefined, undefined, left, 1, 1.6800000000000068, 1, 0, 80, 55, 1, 79, quesdion, 8, left, JAS, 001, 2023-03-11_20h35.59.635, lexical_decision_task, 3.0.0b12, 60
undefined, undefined, left, 1, 1.7729999999999961, 1, 0, 80, 37, 1, 79, secade, 6, left, JAS, 001, 2023-03-11_20h35.59.635, lexical_decision_task, 3.0.0b12, 60
undefined, undefined, right, 1, 1.7069999999999936, 1, 0, 80, 18, 1, 79, line, 4, right, JAS, 001, 2023-03-11_20h35.59.635, lexical_decision_task, 3.0.0b12, 60
undefined, undefined, right, 1, 1.7309999999999945, 1, 0, 80, 52, 1, 79, remember, 8, right, JAS, 001, 2023-03-11_20h35.59.635, lexical_decision_task, 3.0.0b12, 60
undefined, undefined, left, 1, 1.8289999999999935, 1, 0, 80, 53, 1, 79, rememper, 8, left, JAS, 001, 2023-03-11_20h35.59.635, lexical_decision_task, 3.0.0b12, 60
undefined, undefined, left, 1, 2.831000000000003, 1, 0, 80, 75, 1, 79, especialty, 10, left, JAS, 001, 2023-03-11_20h35.59.635, lexical_decision_task, 3.0.0b12, 60
undefined, undefined, right, 1, 1.7519999999999953, 1, 0, 80, 50, 1, 79, business, 8, right, JAS, 001, 2023-03-11_20h35.59.635, lexical_decision_task, 3.0.0b12, 60
undefined, undefined, right, 1, 1.8289999999999935, 1, 0, 80, 12, 1, 79, much, 4, right, JAS, 001, 2023-03-11_20h35.59.635, lexical_decision_task, 3.0.0b12, 60
undefined, undefined, left, 1, 1.820999999999998, 1, 0, 80, 59, 1, 79, pesearch, 8, left, JAS, 001, 2023-03-11_20h35.59.635, lexical_decision_task, 3.0.0b12, 60
undefined, undefined, right, 1, 2.5930000000000035, 1, 0, 80, 74, 1, 79, especially, 10, right, JAS, 001, 2023-03-11_20h35.59.635, lexical_decision_task, 3.0.0b12, 60
undefined, undefined, left, 1, 1.9010000000000105, 1, 0, 80, 1, 1, 79, woy, 3, left, JAS, 001, 2023-03-11_20h35.59.635, lexical_decision_task, 3.0.0b12, 60
undefined, undefined, left, 1, 1.762999999999991, 1, 0, 80, 7, 1, 79, fot, 3, left, JAS, 001, 2023-03-11_20h35.59.635, lexical_decision_task, 3.0.0b12, 60
undefined, undefined, left, 1, 1.7319999999999993, 1, 0, 80, 57, 1, 79, anythink, 8, left, JAS, 001, 2023-03-11_20h35.59.635, lexical_decision_task, 3.0.0b12, 60
undefined, undefined, right, 1, 1.7150000000000034, 1, 0, 80, 64, 1, 79, political, 9, right, JAS, 001, 2023-03-11_20h35.59.635, lexical_decision_task, 3.0.0b12, 60
undefined, undefined, right, 1, 1.7489999999999952, 1, 0, 80, 32, 1, 79, become, 6, right, JAS, 001, 2023-03-11_20h35.59.635, lexical_decision_task, 3.0.0b12, 60
undefined, undefined, left, 1, 1.649000000000001, 1, 0, 80, 79, 1, 79, bopulation, 10, left, JAS, 001, 2023-03-11_20h35.59.635, lexical_decision_task, 3.0.0b12, 60
undefined, undefined, right, 1, 2.0130000000000052, 1, 0, 80, 16, 1, 79, hour, 4, right, JAS, 001, 2023-03-11_20h35.59.635, lexical_decision_task, 3.0.0b12, 60
undefined, undefined, left, 1, 2.4669999999999987, 1, 0, 80, 63, 1, 79, importent, 9, left, JAS, 001, 2023-03-11_20h35.59.635, lexical_decision_task, 3.0.0b12, 60
undefined, undefined, right, 1, 1.713000000000008, 1, 0, 80, 72, 1, 79, experience, 10, right, JAS, 001, 2023-03-11_20h35.59.635, lexical_decision_task, 3.0.0b12, 60
undefined, undefined, left, 0, 1.7489999999999952, 1, 0, 80, 2, 1, 79, and, 3, right, JAS, 001, 2023-03-11_20h35.59.635, lexical_decision_task, 3.0.0b12, 60
undefined, undefined, left, 1, 1.8649999999999949, 1, 0, 80, 43, 1, 79, countey, 7, left, JAS, 001, 2023-03-11_20h35.59.635, lexical_decision_task, 3.0.0b12, 60
undefined, undefined, left, 1, 1.7480000000000047, 1, 0, 80, 25, 1, 79, thenk, 5, left, JAS, 001, 2023-03-11_20h35.59.635, lexical_decision_task, 3.0.0b12, 60
undefined, undefined, left, 1, 1.7800000000000011, 1, 0, 80, 27, 1, 79, whicb, 5, left, JAS, 001, 2023-03-11_20h35.59.635, lexical_decision_task, 3.0.0b12, 60
undefined, undefined, left, 1, 1.847999999999999, 1, 0, 80, 67, 1, 79, compunity, 9, left, JAS, 001, 2023-03-11_20h35.59.635, lexical_decision_task, 3.0.0b12, 60
undefined, undefined, left, 1, 1.6979999999999933, 1, 0, 80, 47, 1, 79, compane, 7, left, JAS, 001, 2023-03-11_20h35.59.635, lexical_decision_task, 3.0.0b12, 60
undefined, undefined, left, 1, 1.7489999999999952, 1, 0, 80, 33, 1, 79, becone, 6, left, JAS, 001, 2023-03-11_20h35.59.635, lexical_decision_task, 3.0.0b12, 60
undefined, undefined, left, 1, 1.6640000000000015, 1, 0, 80, 11, 1, 79, wunt, 4, left, JAS, 001, 2023-03-11_20h35.59.635, lexical_decision_task, 3.0.0b12, 60
undefined, undefined, left, 1, 1.9140000000000015, 1, 0, 80, 51, 1, 79, bussness, 8, left, JAS, 001, 2023-03-11_20h35.59.635, lexical_decision_task, 3.0.0b12, 60
undefined, undefined, right, 1, 1.6149999999999949, 1, 0, 80, 0, 1, 79, way, 3, right, JAS, 001, 2023-03-11_20h35.59.635, lexical_decision_task, 3.0.0b12, 60
undefined, undefined, right, 1, 1.7150000000000034, 1, 0, 80, 46, 1, 79, company, 7, right, JAS, 001, 2023-03-11_20h35.59.635, lexical_decision_task, 3.0.0b12, 60
undefined, undefined, right, 1, 1.8160000000000025, 1, 0, 80, 58, 1, 79, research, 8, right, JAS, 001, 2023-03-11_20h35.59.635, lexical_decision_task, 3.0.0b12, 60
undefined, undefined, right, 1, 1.6620000000000061, 1, 0, 80, 36, 1, 79, decade, 6, right, JAS, 001, 2023-03-11_20h35.59.635, lexical_decision_task, 3.0.0b12, 60
undefined, undefined, right, 1, 1.8389999999999986, 1, 0, 80, 44, 1, 79, between, 7, right, JAS, 001, 2023-03-11_20h35.59.635, lexical_decision_task, 3.0.0b12, 60
undefined, undefined, left, 1, 1.7439999999999998, 1, 0, 80, 13, 1, 79, mech, 4, left, JAS, 001, 2023-03-11_20h35.59.635, lexical_decision_task, 3.0.0b12, 60
undefined, undefined, left, 1, 1.896000000000015, 1, 0, 80, 65, 1, 79, pofitical, 9, left, JAS, 001, 2023-03-11_20h35.59.635, lexical_decision_task, 3.0.0b12, 60
undefined, undefined, left, 1, 1.7320000000000277, 1, 0, 80, 39, 1, 79, sistem, 6, left, JAS, 001, 2023-03-11_20h35.59.635, lexical_decision_task, 3.0.0b12, 60
undefined, undefined, right, 1, 1.9029999999999916, 1, 0, 80, 68, 1, 79, including, 9, right, JAS, 001, 2023-03-11_20h35.59.635, lexical_decision_task, 3.0.0b12, 60
undefined, undefined, left, 1, 1.7930000000000064, 1, 0, 80, 45, 1, 79, bedween, 7, left, JAS, 001, 2023-03-11_20h35.59.635, lexical_decision_task, 3.0.0b12, 60
undefined, undefined, left, 1, 1.7179999999999893, 1, 0, 80, 5, 1, 79, neu, 3, left, JAS, 001, 2023-03-11_20h35.59.635, lexical_decision_task, 3.0.0b12, 60
undefined, undefined, left, 1, 1.9310000000000116, 1, 0, 80, 3, 1, 79, anf, 3, left, JAS, 001, 2023-03-11_20h35.59.635, lexical_decision_task, 3.0.0b12, 60
undefined, undefined, right, 1, 1.6980000000000075, 1, 0, 80, 26, 1, 79, which, 5, right, JAS, 001, 2023-03-11_20h35.59.635, lexical_decision_task, 3.0.0b12, 60
undefined, undefined, left, 1, 1.7489999999999952, 1, 0, 80, 41, 1, 79, pregram, 7, left, JAS, 001, 2023-03-11_20h35.59.635, lexical_decision_task, 3.0.0b12, 60
undefined, undefined, right, 1, 1.6999999999999886, 1, 0, 80, 56, 1, 79, anything, 8, right, JAS, 001, 2023-03-11_20h35.59.635, lexical_decision_task, 3.0.0b12, 60
undefined, undefined, left, 1, 1.9310000000000116, 1, 0, 80, 77, 1, 79, tochnology, 10, left, JAS, 001, 2023-03-11_20h35.59.635, lexical_decision_task, 3.0.0b12, 60
undefined, undefined, left, 1, 1.8189999999999884, 1, 0, 80, 19, 1, 79, lipe, 4, left, JAS, 001, 2023-03-11_20h35.59.635, lexical_decision_task, 3.0.0b12, 60
undefined, undefined, right, 1, 1.7450000000000045, 1, 0, 80, 62, 1, 79, important, 9, right, JAS, 001, 2023-03-11_20h35.59.635, lexical_decision_task, 3.0.0b12, 60
undefined, undefined, right, 1, 2.015000000000015, 1, 0, 80, 42, 1, 79, country, 7, right, JAS, 001, 2023-03-11_20h35.59.635, lexical_decision_task, 3.0.0b12, 60
undefined, undefined, right, 1, 1.7659999999999911, 1, 0, 80, 10, 1, 79, want, 4, right, JAS, 001, 2023-03-11_20h35.59.635, lexical_decision_task, 3.0.0b12, 60
undefined, undefined, right, 1, 2.0490000000000066, 1, 0, 80, 78, 1, 79, population, 10, right, JAS, 001, 2023-03-11_20h35.59.635, lexical_decision_task, 3.0.0b12, 60
undefined, undefined, right, 1, 1.6340000000000146, 1, 0, 80, 14, 1, 79, play, 4, right, JAS, 001, 2023-03-11_20h35.59.635, lexical_decision_task, 3.0.0b12, 60
undefined, undefined, right, 1, 1.6280000000000143, 1, 0, 80, 76, 1, 79, technology, 10, right, JAS, 001, 2023-03-11_20h35.59.635, lexical_decision_task, 3.0.0b12, 60
undefined, undefined, left, 1, 1.681999999999988, 1, 0, 80, 71, 1, 79, eferything, 10, left, JAS, 001, 2023-03-11_20h35.59.635, lexical_decision_task, 3.0.0b12, 60
undefined, undefined, left, 1, 1.7509999999999764, 1, 0, 80, 17, 1, 79, heur, 4, left, JAS, 001, 2023-03-11_20h35.59.635, lexical_decision_task, 3.0.0b12, 60
undefined, undefined, right, 1, 1.8480000000000132, 1, 0, 80, 38, 1, 79, system, 6, right, JAS, 001, 2023-03-11_20h35.59.635, lexical_decision_task, 3.0.0b12, 60
undefined, undefined, right, 1, 1.8520000000000039, 1, 0, 80, 22, 1, 79, about, 5, right, JAS, 001, 2023-03-11_20h35.59.635, lexical_decision_task, 3.0.0b12, 60
undefined, undefined, left, 1, 1.6940000000000168, 1, 0, 80, 15, 1, 79, ptay, 4, left, JAS, 001, 2023-03-11_20h35.59.635, lexical_decision_task, 3.0.0b12, 60
