key_resp_1.keys, key_resp_1.rt, response.keys, response.corr, response.rt, trials.thisRepN, trials.thisTrialN, trials.thisN, trials.thisIndex, trials.ran, trials.order, words, number_of_letters, corrAns, participant, session, date, expName, psychopyVersion, frameRate
space, 16.438000000000002, right, 1, 3.896000000000001, 1, 0, 80, 38, 1, 79, system, 6, right, k, 001, 2021-07-19_13h15.52.969, lexical_decision_task, 3.0.0b12, 60
undefined, undefined, right, 1, 3.2959999999999923, 1, 0, 80, 0, 1, 79, way, 3, right, k, 001, 2021-07-19_13h15.52.969, lexical_decision_task, 3.0.0b12, 60
undefined, undefined, right, 1, 1.9140000000000015, 1, 0, 80, 12, 1, 79, much, 4, right, k, 001, 2021-07-19_13h15.52.969, lexical_decision_task, 3.0.0b12, 60
undefined, undefined, right, 1, 1.796999999999997, 1, 0, 80, 44, 1, 79, between, 7, right, k, 001, 2021-07-19_13h15.52.969, lexical_decision_task, 3.0.0b12, 60
undefined, undefined, right, 1, 1.9980000000000047, 1, 0, 80, 24, 1, 79, think, 5, right, k, 001, 2021-07-19_13h15.52.969, lexical_decision_task, 3.0.0b12, 60
undefined, undefined, left, 1, 3.030000000000001, 1, 0, 80, 19, 1, 79, lipe, 4, left, k, 001, 2021-07-19_13h15.52.969, lexical_decision_task, 3.0.0b12, 60
undefined, undefined, right, 1, 1.9470000000000027, 1, 0, 80, 6, 1, 79, for, 3, right, k, 001, 2021-07-19_13h15.52.969, lexical_decision_task, 3.0.0b12, 60
undefined, undefined, left, 1, 2.9480000000000075, 1, 0, 80, 33, 1, 79, becone, 6, left, k, 001, 2021-07-19_13h15.52.969, lexical_decision_task, 3.0.0b12, 60
undefined, undefined, left, 1, 3.8800000000000097, 1, 0, 80, 31, 1, 79, shoule, 6, left, k, 001, 2021-07-19_13h15.52.969, lexical_decision_task, 3.0.0b12, 60
undefined, undefined, right, 1, 2.4950000000000045, 1, 0, 80, 56, 1, 79, anything, 8, right, k, 001, 2021-07-19_13h15.52.969, lexical_decision_task, 3.0.0b12, 60
undefined, undefined, left, 1, 2.4810000000000088, 1, 0, 80, 45, 1, 79, bedween, 7, left, k, 001, 2021-07-19_13h15.52.969, lexical_decision_task, 3.0.0b12, 60
undefined, undefined, left, 1, 3.9630000000000223, 1, 0, 80, 29, 1, 79, courd, 5, left, k, 001, 2021-07-19_13h15.52.969, lexical_decision_task, 3.0.0b12, 60
undefined, undefined, left, 1, 2.430000000000007, 1, 0, 80, 73, 1, 79, exberience, 10, left, k, 001, 2021-07-19_13h15.52.969, lexical_decision_task, 3.0.0b12, 60
undefined, undefined, right, 1, 2.0960000000000036, 1, 0, 80, 4, 1, 79, new, 3, right, k, 001, 2021-07-19_13h15.52.969, lexical_decision_task, 3.0.0b12, 60
undefined, undefined, right, 1, 2.281000000000006, 1, 0, 80, 52, 1, 79, remember, 8, right, k, 001, 2021-07-19_13h15.52.969, lexical_decision_task, 3.0.0b12, 60
undefined, undefined, right, 1, 1.7480000000000189, 1, 0, 80, 70, 1, 79, everything, 10, right, k, 001, 2021-07-19_13h15.52.969, lexical_decision_task, 3.0.0b12, 60
undefined, undefined, left, 1, 4.546000000000021, 1, 0, 80, 79, 1, 79, bopulation, 10, left, k, 001, 2021-07-19_13h15.52.969, lexical_decision_task, 3.0.0b12, 60
undefined, undefined, right, 1, 2.1980000000000075, 1, 0, 80, 22, 1, 79, about, 5, right, k, 001, 2021-07-19_13h15.52.969, lexical_decision_task, 3.0.0b12, 60
undefined, undefined, right, 1, 2.2809999999999775, 1, 0, 80, 54, 1, 79, question, 8, right, k, 001, 2021-07-19_13h15.52.969, lexical_decision_task, 3.0.0b12, 60
undefined, undefined, left, 1, 2.598000000000013, 1, 0, 80, 11, 1, 79, wunt, 4, left, k, 001, 2021-07-19_13h15.52.969, lexical_decision_task, 3.0.0b12, 60
undefined, undefined, right, 1, 2.0800000000000125, 1, 0, 80, 46, 1, 79, company, 7, right, k, 001, 2021-07-19_13h15.52.969, lexical_decision_task, 3.0.0b12, 60
undefined, undefined, left, 1, 2.8629999999999995, 1, 0, 80, 21, 1, 79, theyr, 5, left, k, 001, 2021-07-19_13h15.52.969, lexical_decision_task, 3.0.0b12, 60
undefined, undefined, right, 1, 1.9639999999999986, 1, 0, 80, 28, 1, 79, could, 5, right, k, 001, 2021-07-19_13h15.52.969, lexical_decision_task, 3.0.0b12, 60
undefined, undefined, left, 1, 3.8799999999999955, 1, 0, 80, 37, 1, 79, secade, 6, left, k, 001, 2021-07-19_13h15.52.969, lexical_decision_task, 3.0.0b12, 60
undefined, undefined, right, 1, 1.9629999999999939, 1, 0, 80, 34, 1, 79, factor, 6, right, k, 001, 2021-07-19_13h15.52.969, lexical_decision_task, 3.0.0b12, 60
undefined, undefined, right, 1, 2.1469999999999914, 1, 0, 80, 76, 1, 79, technology, 10, right, k, 001, 2021-07-19_13h15.52.969, lexical_decision_task, 3.0.0b12, 60
undefined, undefined, left, 1, 4.181000000000012, 1, 0, 80, 43, 1, 79, countey, 7, left, k, 001, 2021-07-19_13h15.52.969, lexical_decision_task, 3.0.0b12, 60
undefined, undefined, right, 1, 1.7630000000000052, 1, 0, 80, 8, 1, 79, out, 3, right, k, 001, 2021-07-19_13h15.52.969, lexical_decision_task, 3.0.0b12, 60
undefined, undefined, left, 1, 2.2819999999999823, 1, 0, 80, 25, 1, 79, thenk, 5, left, k, 001, 2021-07-19_13h15.52.969, lexical_decision_task, 3.0.0b12, 60
undefined, undefined, left, 1, 2.430000000000007, 1, 0, 80, 41, 1, 79, pregram, 7, left, k, 001, 2021-07-19_13h15.52.969, lexical_decision_task, 3.0.0b12, 60
undefined, undefined, right, 1, 3.731000000000023, 1, 0, 80, 16, 1, 79, hour, 4, right, k, 001, 2021-07-19_13h15.52.969, lexical_decision_task, 3.0.0b12, 60
undefined, undefined, left, 1, 2.5810000000000173, 1, 0, 80, 77, 1, 79, tochnology, 10, left, k, 001, 2021-07-19_13h15.52.969, lexical_decision_task, 3.0.0b12, 60
undefined, undefined, left, 1, 3.714999999999975, 1, 0, 80, 35, 1, 79, fector, 6, left, k, 001, 2021-07-19_13h15.52.969, lexical_decision_task, 3.0.0b12, 60
undefined, undefined, right, 1, 1.813999999999993, 1, 0, 80, 26, 1, 79, which, 5, right, k, 001, 2021-07-19_13h15.52.969, lexical_decision_task, 3.0.0b12, 60
undefined, undefined, left, 1, 2.834000000000003, 1, 0, 80, 23, 1, 79, aboot, 5, left, k, 001, 2021-07-19_13h15.52.969, lexical_decision_task, 3.0.0b12, 60
undefined, undefined, right, 1, 2.2600000000000193, 1, 0, 80, 10, 1, 79, want, 4, right, k, 001, 2021-07-19_13h15.52.969, lexical_decision_task, 3.0.0b12, 60
undefined, undefined, right, 1, 2.8640000000000043, 1, 0, 80, 50, 1, 79, business, 8, right, k, 001, 2021-07-19_13h15.52.969, lexical_decision_task, 3.0.0b12, 60
undefined, undefined, left, 1, 3.530000000000001, 1, 0, 80, 3, 1, 79, anf, 3, left, k, 001, 2021-07-19_13h15.52.969, lexical_decision_task, 3.0.0b12, 60
undefined, undefined, right, 1, 1.7480000000000189, 1, 0, 80, 30, 1, 79, should, 6, right, k, 001, 2021-07-19_13h15.52.969, lexical_decision_task, 3.0.0b12, 60
undefined, undefined, left, 0, 1.6639999999999873, 1, 0, 80, 48, 1, 79, believe, 7, right, k, 001, 2021-07-19_13h15.52.969, lexical_decision_task, 3.0.0b12, 60
undefined, undefined, left, 1, 2.3659999999999854, 1, 0, 80, 55, 1, 79, quesdion, 8, left, k, 001, 2021-07-19_13h15.52.969, lexical_decision_task, 3.0.0b12, 60
undefined, undefined, right, 1, 1.6990000000000123, 1, 0, 80, 14, 1, 79, play, 4, right, k, 001, 2021-07-19_13h15.52.969, lexical_decision_task, 3.0.0b12, 60
undefined, undefined, left, 1, 2.282999999999987, 1, 0, 80, 13, 1, 79, mech, 4, left, k, 001, 2021-07-19_13h15.52.969, lexical_decision_task, 3.0.0b12, 60
undefined, undefined, right, 1, 1.899000000000001, 1, 0, 80, 64, 1, 79, political, 9, right, k, 001, 2021-07-19_13h15.52.969, lexical_decision_task, 3.0.0b12, 60
undefined, undefined, left, 1, 5.4480000000000075, 1, 0, 80, 47, 1, 79, compane, 7, left, k, 001, 2021-07-19_13h15.52.969, lexical_decision_task, 3.0.0b12, 60
undefined, undefined, left, 1, 3.430000000000007, 1, 0, 80, 67, 1, 79, compunity, 9, left, k, 001, 2021-07-19_13h15.52.969, lexical_decision_task, 3.0.0b12, 60
undefined, undefined, left, 1, 3.396000000000015, 1, 0, 80, 59, 1, 79, pesearch, 8, left, k, 001, 2021-07-19_13h15.52.969, lexical_decision_task, 3.0.0b12, 60
undefined, undefined, right, 1, 9.229000000000013, 1, 0, 80, 78, 1, 79, population, 10, right, k, 001, 2021-07-19_13h15.52.969, lexical_decision_task, 3.0.0b12, 60
undefined, undefined, left, 1, 3.1450000000000102, 1, 0, 80, 69, 1, 79, incluting, 9, left, k, 001, 2021-07-19_13h15.52.969, lexical_decision_task, 3.0.0b12, 60
undefined, undefined, right, 1, 3.4469999999999743, 1, 0, 80, 42, 1, 79, country, 7, right, k, 001, 2021-07-19_13h15.52.969, lexical_decision_task, 3.0.0b12, 60
undefined, undefined, right, 1, 1.9339999999999975, 1, 0, 80, 58, 1, 79, research, 8, right, k, 001, 2021-07-19_13h15.52.969, lexical_decision_task, 3.0.0b12, 60
undefined, undefined, right, 1, 1.811000000000007, 1, 0, 80, 62, 1, 79, important, 9, right, k, 001, 2021-07-19_13h15.52.969, lexical_decision_task, 3.0.0b12, 60
undefined, undefined, right, 1, 1.781000000000006, 1, 0, 80, 68, 1, 79, including, 9, right, k, 001, 2021-07-19_13h15.52.969, lexical_decision_task, 3.0.0b12, 60
undefined, undefined, left, 1, 2.4799999999999898, 1, 0, 80, 51, 1, 79, bussness, 8, left, k, 001, 2021-07-19_13h15.52.969, lexical_decision_task, 3.0.0b12, 60
undefined, undefined, right, 1, 1.899000000000001, 1, 0, 80, 18, 1, 79, line, 4, right, k, 001, 2021-07-19_13h15.52.969, lexical_decision_task, 3.0.0b12, 60
undefined, undefined, right, 1, 1.6639999999999873, 1, 0, 80, 2, 1, 79, and, 3, right, k, 001, 2021-07-19_13h15.52.969, lexical_decision_task, 3.0.0b12, 60
undefined, undefined, right, 1, 4.347000000000008, 1, 0, 80, 32, 1, 79, become, 6, right, k, 001, 2021-07-19_13h15.52.969, lexical_decision_task, 3.0.0b12, 60
undefined, undefined, right, 1, 2.480000000000018, 1, 0, 80, 72, 1, 79, experience, 10, right, k, 001, 2021-07-19_13h15.52.969, lexical_decision_task, 3.0.0b12, 60
undefined, undefined, left, 1, 3.0640000000000214, 1, 0, 80, 1, 1, 79, woy, 3, left, k, 001, 2021-07-19_13h15.52.969, lexical_decision_task, 3.0.0b12, 60
undefined, undefined, left, 1, 5.817999999999984, 1, 0, 80, 75, 1, 79, especialty, 10, left, k, 001, 2021-07-19_13h15.52.969, lexical_decision_task, 3.0.0b12, 60
undefined, undefined, left, 1, 2.959000000000003, 1, 0, 80, 39, 1, 79, sistem, 6, left, k, 001, 2021-07-19_13h15.52.969, lexical_decision_task, 3.0.0b12, 60
undefined, undefined, left, 1, 3.274000000000001, 1, 0, 80, 61, 1, 79, bifferent, 9, left, k, 001, 2021-07-19_13h15.52.969, lexical_decision_task, 3.0.0b12, 60
undefined, undefined, left, 1, 3.09699999999998, 1, 0, 80, 71, 1, 79, eferything, 10, left, k, 001, 2021-07-19_13h15.52.969, lexical_decision_task, 3.0.0b12, 60
undefined, undefined, right, 1, 3.980000000000018, 1, 0, 80, 36, 1, 79, decade, 6, right, k, 001, 2021-07-19_13h15.52.969, lexical_decision_task, 3.0.0b12, 60
undefined, undefined, left, 1, 2.2630000000000337, 1, 0, 80, 63, 1, 79, importent, 9, left, k, 001, 2021-07-19_13h15.52.969, lexical_decision_task, 3.0.0b12, 60
undefined, undefined, right, 1, 2.412999999999954, 1, 0, 80, 66, 1, 79, community, 9, right, k, 001, 2021-07-19_13h15.52.969, lexical_decision_task, 3.0.0b12, 60
undefined, undefined, left, 1, 3.6820000000000164, 1, 0, 80, 65, 1, 79, pofitical, 9, left, k, 001, 2021-07-19_13h15.52.969, lexical_decision_task, 3.0.0b12, 60
undefined, undefined, left, 1, 5.362000000000023, 1, 0, 80, 15, 1, 79, ptay, 4, left, k, 001, 2021-07-19_13h15.52.969, lexical_decision_task, 3.0.0b12, 60
undefined, undefined, right, 1, 2.562999999999988, 1, 0, 80, 74, 1, 79, especially, 10, right, k, 001, 2021-07-19_13h15.52.969, lexical_decision_task, 3.0.0b12, 60
undefined, undefined, left, 1, 5.230000000000018, 1, 0, 80, 57, 1, 79, anythink, 8, left, k, 001, 2021-07-19_13h15.52.969, lexical_decision_task, 3.0.0b12, 60
undefined, undefined, right, 1, 2.512999999999977, 1, 0, 80, 20, 1, 79, their, 5, right, k, 001, 2021-07-19_13h15.52.969, lexical_decision_task, 3.0.0b12, 60
undefined, undefined, left, 1, 2.6310000000000286, 1, 0, 80, 7, 1, 79, fot, 3, left, k, 001, 2021-07-19_13h15.52.969, lexical_decision_task, 3.0.0b12, 60
undefined, undefined, left, 1, 2.8009999999999877, 1, 0, 80, 49, 1, 79, beliefe, 7, left, k, 001, 2021-07-19_13h15.52.969, lexical_decision_task, 3.0.0b12, 60
undefined, undefined, left, 1, 2.0989999999999895, 1, 0, 80, 27, 1, 79, whicb, 5, left, k, 001, 2021-07-19_13h15.52.969, lexical_decision_task, 3.0.0b12, 60
undefined, undefined, right, 1, 2.0149999999999864, 1, 0, 80, 60, 1, 79, different, 9, right, k, 001, 2021-07-19_13h15.52.969, lexical_decision_task, 3.0.0b12, 60
undefined, undefined, left, 1, 1.9489999999999554, 1, 0, 80, 17, 1, 79, heur, 4, left, k, 001, 2021-07-19_13h15.52.969, lexical_decision_task, 3.0.0b12, 60
undefined, undefined, left, 1, 1.7819999999999823, 1, 0, 80, 5, 1, 79, neu, 3, left, k, 001, 2021-07-19_13h15.52.969, lexical_decision_task, 3.0.0b12, 60
undefined, undefined, right, 1, 1.9110000000000014, 1, 0, 80, 40, 1, 79, program, 7, right, k, 001, 2021-07-19_13h15.52.969, lexical_decision_task, 3.0.0b12, 60
undefined, undefined, left, 1, 1.8640000000000327, 1, 0, 80, 9, 1, 79, ous, 3, left, k, 001, 2021-07-19_13h15.52.969, lexical_decision_task, 3.0.0b12, 60
undefined, undefined, left, 1, 1.9809999999999945, 1, 0, 80, 53, 1, 79, rememper, 8, left, k, 001, 2021-07-19_13h15.52.969, lexical_decision_task, 3.0.0b12, 60
