key_resp_1.keys, key_resp_1.rt, response.keys, response.corr, response.rt, trials.thisRepN, trials.thisTrialN, trials.thisN, trials.thisIndex, trials.ran, trials.order, words, number_of_letters, corrAns, participant, session, date, expName, psychopyVersion, frameRate
space, 16.802000000000003, right, 1, 2.7079999999999984, 1, 0, 80, 60, 1, 79, different, 9, right, Nitin, 001, 2020-06-07_01h44.15.431, lexical_decision_task, 3.0.0b12, 60
undefined, undefined, right, 0, 2.2340000000000018, 1, 0, 80, 61, 1, 79, bifferent, 9, left, Nitin, 001, 2020-06-07_01h44.15.431, lexical_decision_task, 3.0.0b12, 60
undefined, undefined, right, 1, 1.7340000000000018, 1, 0, 80, 8, 1, 79, out, 3, right, Nitin, 001, 2020-06-07_01h44.15.431, lexical_decision_task, 3.0.0b12, 60
undefined, undefined, right, 1, 2.317999999999998, 1, 0, 80, 42, 1, 79, country, 7, right, Nitin, 001, 2020-06-07_01h44.15.431, lexical_decision_task, 3.0.0b12, 60
undefined, undefined, left, 1, 1.8179999999999978, 1, 0, 80, 31, 1, 79, shoule, 6, left, Nitin, 001, 2020-06-07_01h44.15.431, lexical_decision_task, 3.0.0b12, 60
undefined, undefined, right, 1, 2.3689999999999998, 1, 0, 80, 54, 1, 79, question, 8, right, Nitin, 001, 2020-06-07_01h44.15.431, lexical_decision_task, 3.0.0b12, 60
undefined, undefined, left, 1, 1.833999999999996, 1, 0, 80, 39, 1, 79, sistem, 6, left, Nitin, 001, 2020-06-07_01h44.15.431, lexical_decision_task, 3.0.0b12, 60
undefined, undefined, left, 1, 1.8190000000000026, 1, 0, 80, 71, 1, 79, eferything, 10, left, Nitin, 001, 2020-06-07_01h44.15.431, lexical_decision_task, 3.0.0b12, 60
undefined, undefined, right, 1, 1.8519999999999968, 1, 0, 80, 22, 1, 79, about, 5, right, Nitin, 001, 2020-06-07_01h44.15.431, lexical_decision_task, 3.0.0b12, 60
undefined, undefined, left, 1, 1.9680000000000035, 1, 0, 80, 41, 1, 79, pregram, 7, left, Nitin, 001, 2020-06-07_01h44.15.431, lexical_decision_task, 3.0.0b12, 60
undefined, undefined, left, 0, 2.2349999999999994, 1, 0, 80, 58, 1, 79, research, 8, right, Nitin, 001, 2020-06-07_01h44.15.431, lexical_decision_task, 3.0.0b12, 60
undefined, undefined, right, 1, 2.2850000000000037, 1, 0, 80, 36, 1, 79, decade, 6, right, Nitin, 001, 2020-06-07_01h44.15.431, lexical_decision_task, 3.0.0b12, 60
undefined, undefined, right, 0, 2.102000000000004, 1, 0, 80, 13, 1, 79, mech, 4, left, Nitin, 001, 2020-06-07_01h44.15.431, lexical_decision_task, 3.0.0b12, 60
undefined, undefined, right, 1, 3.235999999999997, 1, 0, 80, 20, 1, 79, their, 5, right, Nitin, 001, 2020-06-07_01h44.15.431, lexical_decision_task, 3.0.0b12, 60
undefined, undefined, right, 1, 1.850999999999999, 1, 0, 80, 2, 1, 79, and, 3, right, Nitin, 001, 2020-06-07_01h44.15.431, lexical_decision_task, 3.0.0b12, 60
undefined, undefined, right, 1, 1.7510000000000048, 1, 0, 80, 18, 1, 79, line, 4, right, Nitin, 001, 2020-06-07_01h44.15.431, lexical_decision_task, 3.0.0b12, 60
undefined, undefined, right, 1, 2.468999999999994, 1, 0, 80, 46, 1, 79, company, 7, right, Nitin, 001, 2020-06-07_01h44.15.431, lexical_decision_task, 3.0.0b12, 60
undefined, undefined, right, 1, 1.9180000000000064, 1, 0, 80, 28, 1, 79, could, 5, right, Nitin, 001, 2020-06-07_01h44.15.431, lexical_decision_task, 3.0.0b12, 60
undefined, undefined, left, 0, 2.2180000000000035, 1, 0, 80, 76, 1, 79, technology, 10, right, Nitin, 001, 2020-06-07_01h44.15.431, lexical_decision_task, 3.0.0b12, 60
undefined, undefined, right, 1, 4.436999999999998, 1, 0, 80, 72, 1, 79, experience, 10, right, Nitin, 001, 2020-06-07_01h44.15.431, lexical_decision_task, 3.0.0b12, 60
undefined, undefined, left, 1, 1.8340000000000032, 1, 0, 80, 7, 1, 79, fot, 3, left, Nitin, 001, 2020-06-07_01h44.15.431, lexical_decision_task, 3.0.0b12, 60
undefined, undefined, right, 0, 3.6359999999999957, 1, 0, 80, 29, 1, 79, courd, 5, left, Nitin, 001, 2020-06-07_01h44.15.431, lexical_decision_task, 3.0.0b12, 60
undefined, undefined, right, 0, 3.1189999999999998, 1, 0, 80, 63, 1, 79, importent, 9, left, Nitin, 001, 2020-06-07_01h44.15.431, lexical_decision_task, 3.0.0b12, 60
undefined, undefined, left, 1, 1.850999999999999, 1, 0, 80, 15, 1, 79, ptay, 4, left, Nitin, 001, 2020-06-07_01h44.15.431, lexical_decision_task, 3.0.0b12, 60
undefined, undefined, left, 1, 2.168999999999997, 1, 0, 80, 67, 1, 79, compunity, 9, left, Nitin, 001, 2020-06-07_01h44.15.431, lexical_decision_task, 3.0.0b12, 60
undefined, undefined, left, 1, 1.7519999999999953, 1, 0, 80, 27, 1, 79, whicb, 5, left, Nitin, 001, 2020-06-07_01h44.15.431, lexical_decision_task, 3.0.0b12, 60
undefined, undefined, left, 1, 1.7680000000000007, 1, 0, 80, 55, 1, 79, quesdion, 8, left, Nitin, 001, 2020-06-07_01h44.15.431, lexical_decision_task, 3.0.0b12, 60
undefined, undefined, left, 1, 2.1189999999999998, 1, 0, 80, 77, 1, 79, tochnology, 10, left, Nitin, 001, 2020-06-07_01h44.15.431, lexical_decision_task, 3.0.0b12, 60
undefined, undefined, right, 1, 2.486000000000004, 1, 0, 80, 74, 1, 79, especially, 10, right, Nitin, 001, 2020-06-07_01h44.15.431, lexical_decision_task, 3.0.0b12, 60
undefined, undefined, left, 1, 1.8179999999999978, 1, 0, 80, 53, 1, 79, rememper, 8, left, Nitin, 001, 2020-06-07_01h44.15.431, lexical_decision_task, 3.0.0b12, 60
undefined, undefined, right, 1, 1.8840000000000003, 1, 0, 80, 4, 1, 79, new, 3, right, Nitin, 001, 2020-06-07_01h44.15.431, lexical_decision_task, 3.0.0b12, 60
undefined, undefined, left, 0, 1.784000000000006, 1, 0, 80, 62, 1, 79, important, 9, right, Nitin, 001, 2020-06-07_01h44.15.431, lexical_decision_task, 3.0.0b12, 60
undefined, undefined, right, 0, 1.9679999999999893, 1, 0, 80, 49, 1, 79, beliefe, 7, left, Nitin, 001, 2020-06-07_01h44.15.431, lexical_decision_task, 3.0.0b12, 60
undefined, undefined, right, 1, 1.801000000000002, 1, 0, 80, 12, 1, 79, much, 4, right, Nitin, 001, 2020-06-07_01h44.15.431, lexical_decision_task, 3.0.0b12, 60
undefined, undefined, left, 1, 2.168999999999997, 1, 0, 80, 47, 1, 79, compane, 7, left, Nitin, 001, 2020-06-07_01h44.15.431, lexical_decision_task, 3.0.0b12, 60
undefined, undefined, right, 1, 2.218999999999994, 1, 0, 80, 32, 1, 79, become, 6, right, Nitin, 001, 2020-06-07_01h44.15.431, lexical_decision_task, 3.0.0b12, 60
undefined, undefined, right, 1, 3.9540000000000077, 1, 0, 80, 52, 1, 79, remember, 8, right, Nitin, 001, 2020-06-07_01h44.15.431, lexical_decision_task, 3.0.0b12, 60
undefined, undefined, right, 0, 1.9680000000000035, 1, 0, 80, 1, 1, 79, woy, 3, left, Nitin, 001, 2020-06-07_01h44.15.431, lexical_decision_task, 3.0.0b12, 60
undefined, undefined, right, 1, 1.8689999999999998, 1, 0, 80, 50, 1, 79, business, 8, right, Nitin, 001, 2020-06-07_01h44.15.431, lexical_decision_task, 3.0.0b12, 60
undefined, undefined, right, 0, 4.537999999999997, 1, 0, 80, 75, 1, 79, especialty, 10, left, Nitin, 001, 2020-06-07_01h44.15.431, lexical_decision_task, 3.0.0b12, 60
undefined, undefined, right, 1, 2.0849999999999937, 1, 0, 80, 70, 1, 79, everything, 10, right, Nitin, 001, 2020-06-07_01h44.15.431, lexical_decision_task, 3.0.0b12, 60
undefined, undefined, right, 1, 1.7180000000000035, 1, 0, 80, 78, 1, 79, population, 10, right, Nitin, 001, 2020-06-07_01h44.15.431, lexical_decision_task, 3.0.0b12, 60
undefined, undefined, left, 0, 2.0349999999999966, 1, 0, 80, 40, 1, 79, program, 7, right, Nitin, 001, 2020-06-07_01h44.15.431, lexical_decision_task, 3.0.0b12, 60
undefined, undefined, right, 1, 2.0190000000000055, 1, 0, 80, 26, 1, 79, which, 5, right, Nitin, 001, 2020-06-07_01h44.15.431, lexical_decision_task, 3.0.0b12, 60
undefined, undefined, right, 1, 1.8179999999999836, 1, 0, 80, 0, 1, 79, way, 3, right, Nitin, 001, 2020-06-07_01h44.15.431, lexical_decision_task, 3.0.0b12, 60
undefined, undefined, left, 1, 3.0529999999999973, 1, 0, 80, 37, 1, 79, secade, 6, left, Nitin, 001, 2020-06-07_01h44.15.431, lexical_decision_task, 3.0.0b12, 60
undefined, undefined, left, 1, 2.1850000000000023, 1, 0, 80, 23, 1, 79, aboot, 5, left, Nitin, 001, 2020-06-07_01h44.15.431, lexical_decision_task, 3.0.0b12, 60
undefined, undefined, right, 1, 2.352000000000004, 1, 0, 80, 64, 1, 79, political, 9, right, Nitin, 001, 2020-06-07_01h44.15.431, lexical_decision_task, 3.0.0b12, 60
undefined, undefined, left, 1, 1.9850000000000136, 1, 0, 80, 3, 1, 79, anf, 3, left, Nitin, 001, 2020-06-07_01h44.15.431, lexical_decision_task, 3.0.0b12, 60
undefined, undefined, right, 1, 1.9840000000000089, 1, 0, 80, 10, 1, 79, want, 4, right, Nitin, 001, 2020-06-07_01h44.15.431, lexical_decision_task, 3.0.0b12, 60
undefined, undefined, left, 1, 5.038000000000011, 1, 0, 80, 69, 1, 79, incluting, 9, left, Nitin, 001, 2020-06-07_01h44.15.431, lexical_decision_task, 3.0.0b12, 60
undefined, undefined, right, 0, 2.535000000000025, 1, 0, 80, 35, 1, 79, fector, 6, left, Nitin, 001, 2020-06-07_01h44.15.431, lexical_decision_task, 3.0.0b12, 60
undefined, undefined, right, 1, 1.7510000000000048, 1, 0, 80, 68, 1, 79, including, 9, right, Nitin, 001, 2020-06-07_01h44.15.431, lexical_decision_task, 3.0.0b12, 60
undefined, undefined, left, 1, 2.2520000000000095, 1, 0, 80, 73, 1, 79, exberience, 10, left, Nitin, 001, 2020-06-07_01h44.15.431, lexical_decision_task, 3.0.0b12, 60
undefined, undefined, right, 1, 1.9180000000000064, 1, 0, 80, 48, 1, 79, believe, 7, right, Nitin, 001, 2020-06-07_01h44.15.431, lexical_decision_task, 3.0.0b12, 60
undefined, undefined, left, 1, 1.785000000000025, 1, 0, 80, 25, 1, 79, thenk, 5, left, Nitin, 001, 2020-06-07_01h44.15.431, lexical_decision_task, 3.0.0b12, 60
undefined, undefined, left, 1, 1.7849999999999966, 1, 0, 80, 19, 1, 79, lipe, 4, left, Nitin, 001, 2020-06-07_01h44.15.431, lexical_decision_task, 3.0.0b12, 60
undefined, undefined, left, 1, 1.7179999999999893, 1, 0, 80, 5, 1, 79, neu, 3, left, Nitin, 001, 2020-06-07_01h44.15.431, lexical_decision_task, 3.0.0b12, 60
undefined, undefined, left, 1, 1.9180000000000064, 1, 0, 80, 45, 1, 79, bedween, 7, left, Nitin, 001, 2020-06-07_01h44.15.431, lexical_decision_task, 3.0.0b12, 60
undefined, undefined, left, 1, 1.634999999999991, 1, 0, 80, 17, 1, 79, heur, 4, left, Nitin, 001, 2020-06-07_01h44.15.431, lexical_decision_task, 3.0.0b12, 60
undefined, undefined, left, 1, 2.1850000000000023, 1, 0, 80, 59, 1, 79, pesearch, 8, left, Nitin, 001, 2020-06-07_01h44.15.431, lexical_decision_task, 3.0.0b12, 60
undefined, undefined, right, 1, 1.7680000000000007, 1, 0, 80, 14, 1, 79, play, 4, right, Nitin, 001, 2020-06-07_01h44.15.431, lexical_decision_task, 3.0.0b12, 60
undefined, undefined, right, 1, 1.8009999999999877, 1, 0, 80, 16, 1, 79, hour, 4, right, Nitin, 001, 2020-06-07_01h44.15.431, lexical_decision_task, 3.0.0b12, 60
undefined, undefined, left, 1, 1.7009999999999934, 1, 0, 80, 21, 1, 79, theyr, 5, left, Nitin, 001, 2020-06-07_01h44.15.431, lexical_decision_task, 3.0.0b12, 60
undefined, undefined, right, 1, 2.0010000000000048, 1, 0, 80, 38, 1, 79, system, 6, right, Nitin, 001, 2020-06-07_01h44.15.431, lexical_decision_task, 3.0.0b12, 60
undefined, undefined, right, 1, 1.900999999999982, 1, 0, 80, 30, 1, 79, should, 6, right, Nitin, 001, 2020-06-07_01h44.15.431, lexical_decision_task, 3.0.0b12, 60
undefined, undefined, left, 1, 1.9509999999999934, 1, 0, 80, 11, 1, 79, wunt, 4, left, Nitin, 001, 2020-06-07_01h44.15.431, lexical_decision_task, 3.0.0b12, 60
undefined, undefined, right, 1, 1.9339999999999975, 1, 0, 80, 34, 1, 79, factor, 6, right, Nitin, 001, 2020-06-07_01h44.15.431, lexical_decision_task, 3.0.0b12, 60
undefined, undefined, right, 0, 2.1680000000000064, 1, 0, 80, 33, 1, 79, becone, 6, left, Nitin, 001, 2020-06-07_01h44.15.431, lexical_decision_task, 3.0.0b12, 60
undefined, undefined, left, 1, 2.335000000000008, 1, 0, 80, 51, 1, 79, bussness, 8, left, Nitin, 001, 2020-06-07_01h44.15.431, lexical_decision_task, 3.0.0b12, 60
undefined, undefined, left, 1, 1.7519999999999811, 1, 0, 80, 9, 1, 79, ous, 3, left, Nitin, 001, 2020-06-07_01h44.15.431, lexical_decision_task, 3.0.0b12, 60
undefined, undefined, left, 1, 1.9010000000000105, 1, 0, 80, 43, 1, 79, countey, 7, left, Nitin, 001, 2020-06-07_01h44.15.431, lexical_decision_task, 3.0.0b12, 60
undefined, undefined, right, 1, 2.001999999999981, 1, 0, 80, 44, 1, 79, between, 7, right, Nitin, 001, 2020-06-07_01h44.15.431, lexical_decision_task, 3.0.0b12, 60
undefined, undefined, left, 1, 1.850999999999999, 1, 0, 80, 65, 1, 79, pofitical, 9, left, Nitin, 001, 2020-06-07_01h44.15.431, lexical_decision_task, 3.0.0b12, 60
undefined, undefined, right, 1, 2.2520000000000095, 1, 0, 80, 66, 1, 79, community, 9, right, Nitin, 001, 2020-06-07_01h44.15.431, lexical_decision_task, 3.0.0b12, 60
undefined, undefined, left, 1, 2.0180000000000007, 1, 0, 80, 57, 1, 79, anythink, 8, left, Nitin, 001, 2020-06-07_01h44.15.431, lexical_decision_task, 3.0.0b12, 60
undefined, undefined, right, 1, 1.9509999999999934, 1, 0, 80, 24, 1, 79, think, 5, right, Nitin, 001, 2020-06-07_01h44.15.431, lexical_decision_task, 3.0.0b12, 60
undefined, undefined, right, 1, 2.1850000000000023, 1, 0, 80, 56, 1, 79, anything, 8, right, Nitin, 001, 2020-06-07_01h44.15.431, lexical_decision_task, 3.0.0b12, 60
undefined, undefined, right, 1, 1.6519999999999868, 1, 0, 80, 6, 1, 79, for, 3, right, Nitin, 001, 2020-06-07_01h44.15.431, lexical_decision_task, 3.0.0b12, 60
undefined, undefined, left, 1, 1.7680000000000007, 1, 0, 80, 79, 1, 79, bopulation, 10, left, Nitin, 001, 2020-06-07_01h44.15.431, lexical_decision_task, 3.0.0b12, 60
