key_resp_1.keys, key_resp_1.rt, response.keys, response.corr, response.rt, trials.thisRepN, trials.thisTrialN, trials.thisN, trials.thisIndex, trials.ran, trials.order, words, number_of_letters, corrAns, participant, session, date, expName, psychopyVersion, frameRate
space, 8.972999999999999, right, 1, 3.346, 1, 0, 80, 34, 1, 79, factor, 6, right, sdf, 001, 2022-04-06_18h03.24.340, lexical_decision_task, 3.0.0b12, 60
undefined, undefined, right, 1, 1.9130000000000003, 1, 0, 80, 70, 1, 79, everything, 10, right, sdf, 001, 2022-04-06_18h03.24.340, lexical_decision_task, 3.0.0b12, 60
undefined, undefined, left, 1, 2.215, 1, 0, 80, 21, 1, 79, theyr, 5, left, sdf, 001, 2022-04-06_18h03.24.340, lexical_decision_task, 3.0.0b12, 60
undefined, undefined, right, 1, 1.9520000000000017, 1, 0, 80, 76, 1, 79, technology, 10, right, sdf, 001, 2022-04-06_18h03.24.340, lexical_decision_task, 3.0.0b12, 60
undefined, undefined, left, 1, 2, 1, 0, 80, 25, 1, 79, thenk, 5, left, sdf, 001, 2022-04-06_18h03.24.340, lexical_decision_task, 3.0.0b12, 60
undefined, undefined, right, 0, 1.9009999999999998, 1, 0, 80, 69, 1, 79, incluting, 9, left, sdf, 001, 2022-04-06_18h03.24.340, lexical_decision_task, 3.0.0b12, 60
undefined, undefined, left, 1, 2.5009999999999977, 1, 0, 80, 73, 1, 79, exberience, 10, left, sdf, 001, 2022-04-06_18h03.24.340, lexical_decision_task, 3.0.0b12, 60
undefined, undefined, right, 1, 2.4349999999999987, 1, 0, 80, 48, 1, 79, believe, 7, right, sdf, 001, 2022-04-06_18h03.24.340, lexical_decision_task, 3.0.0b12, 60
undefined, undefined, left, 1, 2.006999999999998, 1, 0, 80, 33, 1, 79, becone, 6, left, sdf, 001, 2022-04-06_18h03.24.340, lexical_decision_task, 3.0.0b12, 60
undefined, undefined, left, 1, 1.9110000000000014, 1, 0, 80, 41, 1, 79, pregram, 7, left, sdf, 001, 2022-04-06_18h03.24.340, lexical_decision_task, 3.0.0b12, 60
undefined, undefined, left, 1, 1.783999999999999, 1, 0, 80, 39, 1, 79, sistem, 6, left, sdf, 001, 2022-04-06_18h03.24.340, lexical_decision_task, 3.0.0b12, 60
undefined, undefined, right, 1, 1.7509999999999977, 1, 0, 80, 6, 1, 79, for, 3, right, sdf, 001, 2022-04-06_18h03.24.340, lexical_decision_task, 3.0.0b12, 60
undefined, undefined, right, 1, 1.7679999999999936, 1, 0, 80, 20, 1, 79, their, 5, right, sdf, 001, 2022-04-06_18h03.24.340, lexical_decision_task, 3.0.0b12, 60
undefined, undefined, left, 1, 1.8829999999999956, 1, 0, 80, 49, 1, 79, beliefe, 7, left, sdf, 001, 2022-04-06_18h03.24.340, lexical_decision_task, 3.0.0b12, 60
undefined, undefined, left, 1, 2.1499999999999986, 1, 0, 80, 11, 1, 79, wunt, 4, left, sdf, 001, 2022-04-06_18h03.24.340, lexical_decision_task, 3.0.0b12, 60
undefined, undefined, right, 1, 1.9699999999999989, 1, 0, 80, 44, 1, 79, between, 7, right, sdf, 001, 2022-04-06_18h03.24.340, lexical_decision_task, 3.0.0b12, 60
undefined, undefined, right, 1, 1.6159999999999997, 1, 0, 80, 24, 1, 79, think, 5, right, sdf, 001, 2022-04-06_18h03.24.340, lexical_decision_task, 3.0.0b12, 60
undefined, undefined, left, 1, 1.9849999999999994, 1, 0, 80, 79, 1, 79, bopulation, 10, left, sdf, 001, 2022-04-06_18h03.24.340, lexical_decision_task, 3.0.0b12, 60
undefined, undefined, left, 0, 1.904999999999994, 1, 0, 80, 28, 1, 79, could, 5, right, sdf, 001, 2022-04-06_18h03.24.340, lexical_decision_task, 3.0.0b12, 60
undefined, undefined, left, 1, 2.0660000000000025, 1, 0, 80, 53, 1, 79, rememper, 8, left, sdf, 001, 2022-04-06_18h03.24.340, lexical_decision_task, 3.0.0b12, 60
undefined, undefined, right, 1, 1.8999999999999986, 1, 0, 80, 50, 1, 79, business, 8, right, sdf, 001, 2022-04-06_18h03.24.340, lexical_decision_task, 3.0.0b12, 60
undefined, undefined, right, 1, 1.5679999999999978, 1, 0, 80, 58, 1, 79, research, 8, right, sdf, 001, 2022-04-06_18h03.24.340, lexical_decision_task, 3.0.0b12, 60
undefined, undefined, right, 1, 1.865000000000002, 1, 0, 80, 60, 1, 79, different, 9, right, sdf, 001, 2022-04-06_18h03.24.340, lexical_decision_task, 3.0.0b12, 60
undefined, undefined, right, 1, 1.823999999999998, 1, 0, 80, 74, 1, 79, especially, 10, right, sdf, 001, 2022-04-06_18h03.24.340, lexical_decision_task, 3.0.0b12, 60
undefined, undefined, right, 1, 1.696000000000005, 1, 0, 80, 56, 1, 79, anything, 8, right, sdf, 001, 2022-04-06_18h03.24.340, lexical_decision_task, 3.0.0b12, 60
undefined, undefined, left, 1, 1.7659999999999982, 1, 0, 80, 3, 1, 79, anf, 3, left, sdf, 001, 2022-04-06_18h03.24.340, lexical_decision_task, 3.0.0b12, 60
undefined, undefined, left, 1, 1.8730000000000047, 1, 0, 80, 59, 1, 79, pesearch, 8, left, sdf, 001, 2022-04-06_18h03.24.340, lexical_decision_task, 3.0.0b12, 60
undefined, undefined, right, 1, 1.8780000000000001, 1, 0, 80, 62, 1, 79, important, 9, right, sdf, 001, 2022-04-06_18h03.24.340, lexical_decision_task, 3.0.0b12, 60
undefined, undefined, right, 1, 1.551000000000002, 1, 0, 80, 14, 1, 79, play, 4, right, sdf, 001, 2022-04-06_18h03.24.340, lexical_decision_task, 3.0.0b12, 60
undefined, undefined, right, 1, 1.7710000000000008, 1, 0, 80, 2, 1, 79, and, 3, right, sdf, 001, 2022-04-06_18h03.24.340, lexical_decision_task, 3.0.0b12, 60
undefined, undefined, right, 1, 1.5790000000000077, 1, 0, 80, 54, 1, 79, question, 8, right, sdf, 001, 2022-04-06_18h03.24.340, lexical_decision_task, 3.0.0b12, 60
undefined, undefined, left, 1, 1.9510000000000076, 1, 0, 80, 75, 1, 79, especialty, 10, left, sdf, 001, 2022-04-06_18h03.24.340, lexical_decision_task, 3.0.0b12, 60
undefined, undefined, left, 1, 2.034000000000006, 1, 0, 80, 31, 1, 79, shoule, 6, left, sdf, 001, 2022-04-06_18h03.24.340, lexical_decision_task, 3.0.0b12, 60
undefined, undefined, left, 0, 2.0360000000000014, 1, 0, 80, 26, 1, 79, which, 5, right, sdf, 001, 2022-04-06_18h03.24.340, lexical_decision_task, 3.0.0b12, 60
undefined, undefined, right, 1, 2.1340000000000003, 1, 0, 80, 30, 1, 79, should, 6, right, sdf, 001, 2022-04-06_18h03.24.340, lexical_decision_task, 3.0.0b12, 60
undefined, undefined, right, 1, 2.0019999999999953, 1, 0, 80, 46, 1, 79, company, 7, right, sdf, 001, 2022-04-06_18h03.24.340, lexical_decision_task, 3.0.0b12, 60
undefined, undefined, right, 0, 1.911999999999992, 1, 0, 80, 51, 1, 79, bussness, 8, left, sdf, 001, 2022-04-06_18h03.24.340, lexical_decision_task, 3.0.0b12, 60
undefined, undefined, left, 1, 1.9849999999999994, 1, 0, 80, 27, 1, 79, whicb, 5, left, sdf, 001, 2022-04-06_18h03.24.340, lexical_decision_task, 3.0.0b12, 60
undefined, undefined, right, 1, 2.084000000000003, 1, 0, 80, 40, 1, 79, program, 7, right, sdf, 001, 2022-04-06_18h03.24.340, lexical_decision_task, 3.0.0b12, 60
undefined, undefined, left, 1, 2.287000000000006, 1, 0, 80, 47, 1, 79, compane, 7, left, sdf, 001, 2022-04-06_18h03.24.340, lexical_decision_task, 3.0.0b12, 60
undefined, undefined, left, 1, 1.8499999999999943, 1, 0, 80, 77, 1, 79, tochnology, 10, left, sdf, 001, 2022-04-06_18h03.24.340, lexical_decision_task, 3.0.0b12, 60
undefined, undefined, right, 1, 1.7660000000000053, 1, 0, 80, 8, 1, 79, out, 3, right, sdf, 001, 2022-04-06_18h03.24.340, lexical_decision_task, 3.0.0b12, 60
undefined, undefined, right, 0, 1.7540000000000049, 1, 0, 80, 23, 1, 79, aboot, 5, left, sdf, 001, 2022-04-06_18h03.24.340, lexical_decision_task, 3.0.0b12, 60
undefined, undefined, right, 1, 1.7849999999999966, 1, 0, 80, 68, 1, 79, including, 9, right, sdf, 001, 2022-04-06_18h03.24.340, lexical_decision_task, 3.0.0b12, 60
undefined, undefined, left, 0, 1.730000000000004, 1, 0, 80, 0, 1, 79, way, 3, right, sdf, 001, 2022-04-06_18h03.24.340, lexical_decision_task, 3.0.0b12, 60
undefined, undefined, right, 1, 1.7180000000000035, 1, 0, 80, 16, 1, 79, hour, 4, right, sdf, 001, 2022-04-06_18h03.24.340, lexical_decision_task, 3.0.0b12, 60
undefined, undefined, right, 1, 1.617999999999995, 1, 0, 80, 12, 1, 79, much, 4, right, sdf, 001, 2022-04-06_18h03.24.340, lexical_decision_task, 3.0.0b12, 60
undefined, undefined, left, 1, 1.7339999999999947, 1, 0, 80, 15, 1, 79, ptay, 4, left, sdf, 001, 2022-04-06_18h03.24.340, lexical_decision_task, 3.0.0b12, 60
undefined, undefined, left, 1, 1.9849999999999994, 1, 0, 80, 55, 1, 79, quesdion, 8, left, sdf, 001, 2022-04-06_18h03.24.340, lexical_decision_task, 3.0.0b12, 60
undefined, undefined, right, 0, 1.7710000000000008, 1, 0, 80, 19, 1, 79, lipe, 4, left, sdf, 001, 2022-04-06_18h03.24.340, lexical_decision_task, 3.0.0b12, 60
undefined, undefined, right, 1, 2.063999999999993, 1, 0, 80, 10, 1, 79, want, 4, right, sdf, 001, 2022-04-06_18h03.24.340, lexical_decision_task, 3.0.0b12, 60
undefined, undefined, right, 1, 1.7390000000000043, 1, 0, 80, 4, 1, 79, new, 3, right, sdf, 001, 2022-04-06_18h03.24.340, lexical_decision_task, 3.0.0b12, 60
undefined, undefined, right, 1, 1.6769999999999925, 1, 0, 80, 64, 1, 79, political, 9, right, sdf, 001, 2022-04-06_18h03.24.340, lexical_decision_task, 3.0.0b12, 60
undefined, undefined, left, 1, 1.867999999999995, 1, 0, 80, 7, 1, 79, fot, 3, left, sdf, 001, 2022-04-06_18h03.24.340, lexical_decision_task, 3.0.0b12, 60
undefined, undefined, left, 1, 1.7000000000000028, 1, 0, 80, 65, 1, 79, pofitical, 9, left, sdf, 001, 2022-04-06_18h03.24.340, lexical_decision_task, 3.0.0b12, 60
undefined, undefined, left, 1, 1.6340000000000003, 1, 0, 80, 1, 1, 79, woy, 3, left, sdf, 001, 2022-04-06_18h03.24.340, lexical_decision_task, 3.0.0b12, 60
undefined, undefined, left, 1, 1.6710000000000065, 1, 0, 80, 43, 1, 79, countey, 7, left, sdf, 001, 2022-04-06_18h03.24.340, lexical_decision_task, 3.0.0b12, 60
undefined, undefined, right, 1, 1.6020000000000039, 1, 0, 80, 22, 1, 79, about, 5, right, sdf, 001, 2022-04-06_18h03.24.340, lexical_decision_task, 3.0.0b12, 60
undefined, undefined, left, 1, 1.7960000000000065, 1, 0, 80, 35, 1, 79, fector, 6, left, sdf, 001, 2022-04-06_18h03.24.340, lexical_decision_task, 3.0.0b12, 60
undefined, undefined, left, 1, 2.1189999999999998, 1, 0, 80, 29, 1, 79, courd, 5, left, sdf, 001, 2022-04-06_18h03.24.340, lexical_decision_task, 3.0.0b12, 60
undefined, undefined, left, 1, 1.6680000000000064, 1, 0, 80, 9, 1, 79, ous, 3, left, sdf, 001, 2022-04-06_18h03.24.340, lexical_decision_task, 3.0.0b12, 60
undefined, undefined, right, 0, 1.733000000000004, 1, 0, 80, 5, 1, 79, neu, 3, left, sdf, 001, 2022-04-06_18h03.24.340, lexical_decision_task, 3.0.0b12, 60
undefined, undefined, right, 1, 2.3360000000000127, 1, 0, 80, 18, 1, 79, line, 4, right, sdf, 001, 2022-04-06_18h03.24.340, lexical_decision_task, 3.0.0b12, 60
undefined, undefined, left, 1, 1.867999999999995, 1, 0, 80, 63, 1, 79, importent, 9, left, sdf, 001, 2022-04-06_18h03.24.340, lexical_decision_task, 3.0.0b12, 60
undefined, undefined, right, 0, 2.0839999999999748, 1, 0, 80, 17, 1, 79, heur, 4, left, sdf, 001, 2022-04-06_18h03.24.340, lexical_decision_task, 3.0.0b12, 60
undefined, undefined, left, 1, 1.7830000000000155, 1, 0, 80, 37, 1, 79, secade, 6, left, sdf, 001, 2022-04-06_18h03.24.340, lexical_decision_task, 3.0.0b12, 60
undefined, undefined, left, 1, 1.9849999999999852, 1, 0, 80, 67, 1, 79, compunity, 9, left, sdf, 001, 2022-04-06_18h03.24.340, lexical_decision_task, 3.0.0b12, 60
undefined, undefined, right, 1, 1.9050000000000011, 1, 0, 80, 72, 1, 79, experience, 10, right, sdf, 001, 2022-04-06_18h03.24.340, lexical_decision_task, 3.0.0b12, 60
undefined, undefined, right, 1, 1.6639999999999873, 1, 0, 80, 36, 1, 79, decade, 6, right, sdf, 001, 2022-04-06_18h03.24.340, lexical_decision_task, 3.0.0b12, 60
undefined, undefined, right, 1, 1.7019999999999982, 1, 0, 80, 38, 1, 79, system, 6, right, sdf, 001, 2022-04-06_18h03.24.340, lexical_decision_task, 3.0.0b12, 60
undefined, undefined, right, 1, 1.766999999999996, 1, 0, 80, 78, 1, 79, population, 10, right, sdf, 001, 2022-04-06_18h03.24.340, lexical_decision_task, 3.0.0b12, 60
undefined, undefined, right, 0, 1.6380000000000052, 1, 0, 80, 57, 1, 79, anythink, 8, left, sdf, 001, 2022-04-06_18h03.24.340, lexical_decision_task, 3.0.0b12, 60
undefined, undefined, left, 1, 1.8969999999999914, 1, 0, 80, 45, 1, 79, bedween, 7, left, sdf, 001, 2022-04-06_18h03.24.340, lexical_decision_task, 3.0.0b12, 60
undefined, undefined, left, 1, 1.7839999999999918, 1, 0, 80, 61, 1, 79, bifferent, 9, left, sdf, 001, 2022-04-06_18h03.24.340, lexical_decision_task, 3.0.0b12, 60
undefined, undefined, right, 1, 1.7839999999999918, 1, 0, 80, 66, 1, 79, community, 9, right, sdf, 001, 2022-04-06_18h03.24.340, lexical_decision_task, 3.0.0b12, 60
undefined, undefined, left, 1, 1.6850000000000023, 1, 0, 80, 13, 1, 79, mech, 4, left, sdf, 001, 2022-04-06_18h03.24.340, lexical_decision_task, 3.0.0b12, 60
undefined, undefined, right, 1, 1.7860000000000014, 1, 0, 80, 52, 1, 79, remember, 8, right, sdf, 001, 2022-04-06_18h03.24.340, lexical_decision_task, 3.0.0b12, 60
undefined, undefined, left, 1, 1.7319999999999993, 1, 0, 80, 71, 1, 79, eferything, 10, left, sdf, 001, 2022-04-06_18h03.24.340, lexical_decision_task, 3.0.0b12, 60
undefined, undefined, right, 1, 1.9339999999999975, 1, 0, 80, 42, 1, 79, country, 7, right, sdf, 001, 2022-04-06_18h03.24.340, lexical_decision_task, 3.0.0b12, 60
undefined, undefined, right, 1, 1.7180000000000177, 1, 0, 80, 32, 1, 79, become, 6, right, sdf, 001, 2022-04-06_18h03.24.340, lexical_decision_task, 3.0.0b12, 60
