key_resp_1.keys, key_resp_1.rt, response.keys, response.corr, response.rt, trials.thisRepN, trials.thisTrialN, trials.thisN, trials.thisIndex, trials.ran, trials.order, words, number_of_letters, corrAns, participant, session, date, expName, psychopyVersion, frameRate
space, 11.524000000000001, left, 1, 4.027000000000001, 1, 0, 80, 17, 1, 79, heur, 4, left, vr, 001, 2022-10-13_16h45.39.504, lexical_decision_task, 3.0.0b12, 60
undefined, undefined, right, 1, 2.279, 1, 0, 80, 44, 1, 79, between, 7, right, vr, 001, 2022-10-13_16h45.39.504, lexical_decision_task, 3.0.0b12, 60
undefined, undefined, right, 1, 1.814, 1, 0, 80, 40, 1, 79, program, 7, right, vr, 001, 2022-10-13_16h45.39.504, lexical_decision_task, 3.0.0b12, 60
undefined, undefined, right, 1, 1.6639999999999944, 1, 0, 80, 76, 1, 79, technology, 10, right, vr, 001, 2022-10-13_16h45.39.504, lexical_decision_task, 3.0.0b12, 60
undefined, undefined, left, 1, 1.8320000000000007, 1, 0, 80, 25, 1, 79, thenk, 5, left, vr, 001, 2022-10-13_16h45.39.504, lexical_decision_task, 3.0.0b12, 60
undefined, undefined, right, 1, 1.7299999999999969, 1, 0, 80, 2, 1, 79, and, 3, right, vr, 001, 2022-10-13_16h45.39.504, lexical_decision_task, 3.0.0b12, 60
undefined, undefined, left, 1, 2.0450000000000017, 1, 0, 80, 11, 1, 79, wunt, 4, left, vr, 001, 2022-10-13_16h45.39.504, lexical_decision_task, 3.0.0b12, 60
undefined, undefined, left, 1, 2.2789999999999964, 1, 0, 80, 29, 1, 79, courd, 5, left, vr, 001, 2022-10-13_16h45.39.504, lexical_decision_task, 3.0.0b12, 60
undefined, undefined, right, 1, 1.6649999999999991, 1, 0, 80, 0, 1, 79, way, 3, right, vr, 001, 2022-10-13_16h45.39.504, lexical_decision_task, 3.0.0b12, 60
undefined, undefined, left, 1, 2.029999999999994, 1, 0, 80, 3, 1, 79, anf, 3, left, vr, 001, 2022-10-13_16h45.39.504, lexical_decision_task, 3.0.0b12, 60
undefined, undefined, right, 1, 1.581000000000003, 1, 0, 80, 50, 1, 79, business, 8, right, vr, 001, 2022-10-13_16h45.39.504, lexical_decision_task, 3.0.0b12, 60
undefined, undefined, left, 1, 2.0150000000000006, 1, 0, 80, 9, 1, 79, ous, 3, left, vr, 001, 2022-10-13_16h45.39.504, lexical_decision_task, 3.0.0b12, 60
undefined, undefined, right, 1, 1.7149999999999963, 1, 0, 80, 14, 1, 79, play, 4, right, vr, 001, 2022-10-13_16h45.39.504, lexical_decision_task, 3.0.0b12, 60
undefined, undefined, right, 1, 1.796999999999997, 1, 0, 80, 6, 1, 79, for, 3, right, vr, 001, 2022-10-13_16h45.39.504, lexical_decision_task, 3.0.0b12, 60
undefined, undefined, right, 1, 1.615000000000002, 1, 0, 80, 72, 1, 79, experience, 10, right, vr, 001, 2022-10-13_16h45.39.504, lexical_decision_task, 3.0.0b12, 60
undefined, undefined, right, 1, 1.4979999999999976, 1, 0, 80, 52, 1, 79, remember, 8, right, vr, 001, 2022-10-13_16h45.39.504, lexical_decision_task, 3.0.0b12, 60
undefined, undefined, right, 1, 1.5319999999999965, 1, 0, 80, 12, 1, 79, much, 4, right, vr, 001, 2022-10-13_16h45.39.504, lexical_decision_task, 3.0.0b12, 60
undefined, undefined, left, 1, 1.6970000000000027, 1, 0, 80, 7, 1, 79, fot, 3, left, vr, 001, 2022-10-13_16h45.39.504, lexical_decision_task, 3.0.0b12, 60
undefined, undefined, left, 1, 1.8149999999999977, 1, 0, 80, 15, 1, 79, ptay, 4, left, vr, 001, 2022-10-13_16h45.39.504, lexical_decision_task, 3.0.0b12, 60
undefined, undefined, left, 1, 1.7809999999999988, 1, 0, 80, 79, 1, 79, bopulation, 10, left, vr, 001, 2022-10-13_16h45.39.504, lexical_decision_task, 3.0.0b12, 60
undefined, undefined, left, 1, 1.6809999999999974, 1, 0, 80, 59, 1, 79, pesearch, 8, left, vr, 001, 2022-10-13_16h45.39.504, lexical_decision_task, 3.0.0b12, 60
undefined, undefined, left, 1, 1.9479999999999933, 1, 0, 80, 33, 1, 79, becone, 6, left, vr, 001, 2022-10-13_16h45.39.504, lexical_decision_task, 3.0.0b12, 60
undefined, undefined, left, 1, 2.5489999999999924, 1, 0, 80, 39, 1, 79, sistem, 6, left, vr, 001, 2022-10-13_16h45.39.504, lexical_decision_task, 3.0.0b12, 60
undefined, undefined, right, 1, 1.9649999999999892, 1, 0, 80, 24, 1, 79, think, 5, right, vr, 001, 2022-10-13_16h45.39.504, lexical_decision_task, 3.0.0b12, 60
undefined, undefined, left, 1, 2.4480000000000075, 1, 0, 80, 49, 1, 79, beliefe, 7, left, vr, 001, 2022-10-13_16h45.39.504, lexical_decision_task, 3.0.0b12, 60
undefined, undefined, right, 1, 1.6969999999999885, 1, 0, 80, 20, 1, 79, their, 5, right, vr, 001, 2022-10-13_16h45.39.504, lexical_decision_task, 3.0.0b12, 60
undefined, undefined, left, 1, 1.9470000000000027, 1, 0, 80, 61, 1, 79, bifferent, 9, left, vr, 001, 2022-10-13_16h45.39.504, lexical_decision_task, 3.0.0b12, 60
undefined, undefined, left, 1, 1.9799999999999898, 1, 0, 80, 51, 1, 79, bussness, 8, left, vr, 001, 2022-10-13_16h45.39.504, lexical_decision_task, 3.0.0b12, 60
undefined, undefined, left, 0, 1.7800000000000011, 1, 0, 80, 66, 1, 79, community, 9, right, vr, 001, 2022-10-13_16h45.39.504, lexical_decision_task, 3.0.0b12, 60
undefined, undefined, left, 1, 1.016999999999996, 1, 0, 80, 23, 1, 79, aboot, 5, left, vr, 001, 2022-10-13_16h45.39.504, lexical_decision_task, 3.0.0b12, 60
undefined, undefined, left, 1, 1.862000000000009, 1, 0, 80, 67, 1, 79, compunity, 9, left, vr, 001, 2022-10-13_16h45.39.504, lexical_decision_task, 3.0.0b12, 60
undefined, undefined, right, 1, 2.149000000000001, 1, 0, 80, 10, 1, 79, want, 4, right, vr, 001, 2022-10-13_16h45.39.504, lexical_decision_task, 3.0.0b12, 60
undefined, undefined, right, 1, 2.4979999999999905, 1, 0, 80, 68, 1, 79, including, 9, right, vr, 001, 2022-10-13_16h45.39.504, lexical_decision_task, 3.0.0b12, 60
undefined, undefined, left, 1, 2.3119999999999976, 1, 0, 80, 31, 1, 79, shoule, 6, left, vr, 001, 2022-10-13_16h45.39.504, lexical_decision_task, 3.0.0b12, 60
undefined, undefined, left, 1, 1.8079999999999927, 1, 0, 80, 69, 1, 79, incluting, 9, left, vr, 001, 2022-10-13_16h45.39.504, lexical_decision_task, 3.0.0b12, 60
undefined, undefined, right, 1, 2.0790000000000077, 1, 0, 80, 16, 1, 79, hour, 4, right, vr, 001, 2022-10-13_16h45.39.504, lexical_decision_task, 3.0.0b12, 60
undefined, undefined, left, 1, 1.7750000000000057, 1, 0, 80, 53, 1, 79, rememper, 8, left, vr, 001, 2022-10-13_16h45.39.504, lexical_decision_task, 3.0.0b12, 60
undefined, undefined, right, 1, 1.781000000000006, 1, 0, 80, 26, 1, 79, which, 5, right, vr, 001, 2022-10-13_16h45.39.504, lexical_decision_task, 3.0.0b12, 60
undefined, undefined, left, 1, 2.8289999999999935, 1, 0, 80, 55, 1, 79, quesdion, 8, left, vr, 001, 2022-10-13_16h45.39.504, lexical_decision_task, 3.0.0b12, 60
undefined, undefined, right, 1, 1.546999999999997, 1, 0, 80, 22, 1, 79, about, 5, right, vr, 001, 2022-10-13_16h45.39.504, lexical_decision_task, 3.0.0b12, 60
undefined, undefined, right, 1, 2.1629999999999967, 1, 0, 80, 8, 1, 79, out, 3, right, vr, 001, 2022-10-13_16h45.39.504, lexical_decision_task, 3.0.0b12, 60
undefined, undefined, right, 1, 1.563999999999993, 1, 0, 80, 74, 1, 79, especially, 10, right, vr, 001, 2022-10-13_16h45.39.504, lexical_decision_task, 3.0.0b12, 60
undefined, undefined, right, 1, 1.7129999999999939, 1, 0, 80, 30, 1, 79, should, 6, right, vr, 001, 2022-10-13_16h45.39.504, lexical_decision_task, 3.0.0b12, 60
undefined, undefined, right, 1, 1.8460000000000036, 1, 0, 80, 34, 1, 79, factor, 6, right, vr, 001, 2022-10-13_16h45.39.504, lexical_decision_task, 3.0.0b12, 60
undefined, undefined, left, 1, 2.247, 1, 0, 80, 75, 1, 79, especialty, 10, left, vr, 001, 2022-10-13_16h45.39.504, lexical_decision_task, 3.0.0b12, 60
undefined, undefined, left, 1, 1.8460000000000036, 1, 0, 80, 73, 1, 79, exberience, 10, left, vr, 001, 2022-10-13_16h45.39.504, lexical_decision_task, 3.0.0b12, 60
undefined, undefined, left, 1, 1.8449999999999989, 1, 0, 80, 63, 1, 79, importent, 9, left, vr, 001, 2022-10-13_16h45.39.504, lexical_decision_task, 3.0.0b12, 60
undefined, undefined, left, 1, 1.7469999999999999, 1, 0, 80, 27, 1, 79, whicb, 5, left, vr, 001, 2022-10-13_16h45.39.504, lexical_decision_task, 3.0.0b12, 60
undefined, undefined, right, 1, 1.9300000000000068, 1, 0, 80, 36, 1, 79, decade, 6, right, vr, 001, 2022-10-13_16h45.39.504, lexical_decision_task, 3.0.0b12, 60
undefined, undefined, right, 1, 1.8469999999999942, 1, 0, 80, 56, 1, 79, anything, 8, right, vr, 001, 2022-10-13_16h45.39.504, lexical_decision_task, 3.0.0b12, 60
undefined, undefined, right, 1, 1.546999999999997, 1, 0, 80, 78, 1, 79, population, 10, right, vr, 001, 2022-10-13_16h45.39.504, lexical_decision_task, 3.0.0b12, 60
undefined, undefined, right, 1, 1.7460000000000093, 1, 0, 80, 46, 1, 79, company, 7, right, vr, 001, 2022-10-13_16h45.39.504, lexical_decision_task, 3.0.0b12, 60
undefined, undefined, right, 1, 1.5450000000000017, 1, 0, 80, 32, 1, 79, become, 6, right, vr, 001, 2022-10-13_16h45.39.504, lexical_decision_task, 3.0.0b12, 60
undefined, undefined, right, 1, 1.51400000000001, 1, 0, 80, 48, 1, 79, believe, 7, right, vr, 001, 2022-10-13_16h45.39.504, lexical_decision_task, 3.0.0b12, 60
undefined, undefined, left, 1, 2.065000000000026, 1, 0, 80, 19, 1, 79, lipe, 4, left, vr, 001, 2022-10-13_16h45.39.504, lexical_decision_task, 3.0.0b12, 60
undefined, undefined, left, 1, 1.8480000000000132, 1, 0, 80, 45, 1, 79, bedween, 7, left, vr, 001, 2022-10-13_16h45.39.504, lexical_decision_task, 3.0.0b12, 60
undefined, undefined, left, 1, 1.781000000000006, 1, 0, 80, 77, 1, 79, tochnology, 10, left, vr, 001, 2022-10-13_16h45.39.504, lexical_decision_task, 3.0.0b12, 60
undefined, undefined, left, 1, 1.6299999999999955, 1, 0, 80, 41, 1, 79, pregram, 7, left, vr, 001, 2022-10-13_16h45.39.504, lexical_decision_task, 3.0.0b12, 60
undefined, undefined, right, 1, 1.6479999999999961, 1, 0, 80, 42, 1, 79, country, 7, right, vr, 001, 2022-10-13_16h45.39.504, lexical_decision_task, 3.0.0b12, 60
undefined, undefined, right, 1, 1.6319999999999766, 1, 0, 80, 70, 1, 79, everything, 10, right, vr, 001, 2022-10-13_16h45.39.504, lexical_decision_task, 3.0.0b12, 60
undefined, undefined, left, 1, 1.664999999999992, 1, 0, 80, 47, 1, 79, compane, 7, left, vr, 001, 2022-10-13_16h45.39.504, lexical_decision_task, 3.0.0b12, 60
undefined, undefined, left, 1, 1.5640000000000214, 1, 0, 80, 1, 1, 79, woy, 3, left, vr, 001, 2022-10-13_16h45.39.504, lexical_decision_task, 3.0.0b12, 60
undefined, undefined, left, 1, 1.7980000000000018, 1, 0, 80, 57, 1, 79, anythink, 8, left, vr, 001, 2022-10-13_16h45.39.504, lexical_decision_task, 3.0.0b12, 60
undefined, undefined, left, 1, 1.5989999999999895, 1, 0, 80, 35, 1, 79, fector, 6, left, vr, 001, 2022-10-13_16h45.39.504, lexical_decision_task, 3.0.0b12, 60
undefined, undefined, right, 1, 1.6469999999999914, 1, 0, 80, 18, 1, 79, line, 4, right, vr, 001, 2022-10-13_16h45.39.504, lexical_decision_task, 3.0.0b12, 60
undefined, undefined, left, 1, 2.080999999999989, 1, 0, 80, 5, 1, 79, neu, 3, left, vr, 001, 2022-10-13_16h45.39.504, lexical_decision_task, 3.0.0b12, 60
undefined, undefined, left, 1, 3.295000000000016, 1, 0, 80, 37, 1, 79, secade, 6, left, vr, 001, 2022-10-13_16h45.39.504, lexical_decision_task, 3.0.0b12, 60
undefined, undefined, right, 1, 1.5819999999999936, 1, 0, 80, 62, 1, 79, important, 9, right, vr, 001, 2022-10-13_16h45.39.504, lexical_decision_task, 3.0.0b12, 60
undefined, undefined, left, 1, 1.7800000000000011, 1, 0, 80, 43, 1, 79, countey, 7, left, vr, 001, 2022-10-13_16h45.39.504, lexical_decision_task, 3.0.0b12, 60
undefined, undefined, right, 1, 1.6659999999999968, 1, 0, 80, 28, 1, 79, could, 5, right, vr, 001, 2022-10-13_16h45.39.504, lexical_decision_task, 3.0.0b12, 60
undefined, undefined, right, 1, 1.7139999999999986, 1, 0, 80, 64, 1, 79, political, 9, right, vr, 001, 2022-10-13_16h45.39.504, lexical_decision_task, 3.0.0b12, 60
undefined, undefined, left, 1, 1.7980000000000018, 1, 0, 80, 71, 1, 79, eferything, 10, left, vr, 001, 2022-10-13_16h45.39.504, lexical_decision_task, 3.0.0b12, 60
undefined, undefined, right, 1, 1.7979999999999734, 1, 0, 80, 58, 1, 79, research, 8, right, vr, 001, 2022-10-13_16h45.39.504, lexical_decision_task, 3.0.0b12, 60
undefined, undefined, right, 1, 1.9979999999999905, 1, 0, 80, 60, 1, 79, different, 9, right, vr, 001, 2022-10-13_16h45.39.504, lexical_decision_task, 3.0.0b12, 60
undefined, undefined, right, 1, 1.5480000000000018, 1, 0, 80, 4, 1, 79, new, 3, right, vr, 001, 2022-10-13_16h45.39.504, lexical_decision_task, 3.0.0b12, 60
undefined, undefined, left, 1, 1.6980000000000075, 1, 0, 80, 13, 1, 79, mech, 4, left, vr, 001, 2022-10-13_16h45.39.504, lexical_decision_task, 3.0.0b12, 60
undefined, undefined, left, 1, 1.8810000000000002, 1, 0, 80, 65, 1, 79, pofitical, 9, left, vr, 001, 2022-10-13_16h45.39.504, lexical_decision_task, 3.0.0b12, 60
undefined, undefined, right, 1, 1.8149999999999977, 1, 0, 80, 54, 1, 79, question, 8, right, vr, 001, 2022-10-13_16h45.39.504, lexical_decision_task, 3.0.0b12, 60
undefined, undefined, right, 1, 2.0149999999999864, 1, 0, 80, 38, 1, 79, system, 6, right, vr, 001, 2022-10-13_16h45.39.504, lexical_decision_task, 3.0.0b12, 60
undefined, undefined, left, 1, 1.5649999999999977, 1, 0, 80, 21, 1, 79, theyr, 5, left, vr, 001, 2022-10-13_16h45.39.504, lexical_decision_task, 3.0.0b12, 60
